%time,field.header.seq,field.header.stamp,field.header.frame_id,field.orientation.x,field.orientation.y,field.orientation.z,field.orientation.w,field.orientation_covariance0,field.orientation_covariance1,field.orientation_covariance2,field.orientation_covariance3,field.orientation_covariance4,field.orientation_covariance5,field.orientation_covariance6,field.orientation_covariance7,field.orientation_covariance8,field.angular_velocity.x,field.angular_velocity.y,field.angular_velocity.z,field.angular_velocity_covariance0,field.angular_velocity_covariance1,field.angular_velocity_covariance2,field.angular_velocity_covariance3,field.angular_velocity_covariance4,field.angular_velocity_covariance5,field.angular_velocity_covariance6,field.angular_velocity_covariance7,field.angular_velocity_covariance8,field.linear_acceleration.x,field.linear_acceleration.y,field.linear_acceleration.z,field.linear_acceleration_covariance0,field.linear_acceleration_covariance1,field.linear_acceleration_covariance2,field.linear_acceleration_covariance3,field.linear_acceleration_covariance4,field.linear_acceleration_covariance5,field.linear_acceleration_covariance6,field.linear_acceleration_covariance7,field.linear_acceleration_covariance8
1758482328157990200,4589,1758482328159625344,base_link,-0.0007988588855427938,-0.0001111001455288347,-0.7424556864038804,-0.6698946956110201,1.0,0.0,0.0,0.0,1.0,0.0,0.0,0.0,1.0,0.0003801260609179735,-0.0003015040419995786,-0.0009274447802454233,1.2184696791468346e-07,0.0,0.0,0.0,1.2184696791468346e-07,0.0,0.0,0.0,1.2184696791468346e-07,0.0,1.202169221539125e-15,9.81645665,8.999999999999999e-08,0.0,0.0,0.0,8.999999999999999e-08,0.0,0.0,0.0,8.999999999999999e-08
1758482328408955000,4590,1758482328409813760,base_link,-0.0008015889214061717,-0.00011400706525449226,-0.7424608592156775,-0.6698889587015957,1.0,0.0,0.0,0.0,1.0,0.0,0.0,0.0,1.0,0.00031454325653612614,-0.00029840529896318923,-0.0009162325877696276,1.2184696791468346e-07,0.0,0.0,0.0,1.2184696791468346e-07,0.0,0.0,0.0,1.2184696791468346e-07,0.0,1.202169221539125e-15,9.81645665,8.999999999999999e-08,0.0,0.0,0.0,8.999999999999999e-08,0.0,0.0,0.0,8.999999999999999e-08
1758482328659858100,4591,1758482328659936384,base_link,-0.0008040052004951201,-0.00011246058499548663,-0.7424622118246591,-0.6698874569214516,1.0,0.0,0.0,0.0,1.0,0.0,0.0,0.0,1.0,0.0003373902291059494,-0.0002835479099303485,-0.0009150577243417501,1.2184696791468346e-07,0.0,0.0,0.0,1.2184696791468346e-07,0.0,0.0,0.0,1.2184696791468346e-07,0.0,1.202169221539125e-15,9.81645665,8.999999999999999e-08,0.0,0.0,0.0,8.999999999999999e-08,0.0,0.0,0.0,8.999999999999999e-08
1758482328911380400,4592,1758482328910116608,base_link,-0.0007988986987414286,-0.00011416203554686479,-0.7424681761950644,-0.6698808521412397,1.0,0.0,0.0,0.0,1.0,0.0,0.0,0.0,1.0,0.00030799652449786663,-0.00029315147548913967,-0.0008223565528169274,1.2184696791468346e-07,0.0,0.0,0.0,1.2184696791468346e-07,0.0,0.0,0.0,1.2184696791468346e-07,0.0,1.202169221539125e-15,9.81645665,8.999999999999999e-08,0.0,0.0,0.0,8.999999999999999e-08,0.0,0.0,0.0,8.999999999999999e-08
1758482329161815700,4593,1758482329160242560,base_link,-0.0007968029553098309,-0.00011522161345929985,-0.7424692093291893,-0.6698797093711069,1.0,0.0,0.0,0.0,1.0,0.0,0.0,0.0,1.0,0.0003027576021850109,-0.00034160306677222263,-0.0008659247541800141,1.2184696791468346e-07,0.0,0.0,0.0,1.2184696791468346e-07,0.0,0.0,0.0,1.2184696791468346e-07,0.0,1.202169221539125e-15,9.81645665,8.999999999999999e-08,0.0,0.0,0.0,8.999999999999999e-08,0.0,0.0,0.0,8.999999999999999e-08
1758482329412203600,4594,1758482329410423552,base_link,-0.0007972617322319808,-0.00011359308490944895,-0.7424745822587553,-0.6698737539044416,1.0,0.0,0.0,0.0,1.0,0.0,0.0,0.0,1.0,0.00027104769833385944,-0.00026781437918543826,-0.0008420896483585238,1.2184696791468346e-07,0.0,0.0,0.0,1.2184696791468346e-07,0.0,0.0,0.0,1.2184696791468346e-07,0.0,1.202169221539125e-15,9.81645665,8.999999999999999e-08,0.0,0.0,0.0,8.999999999999999e-08,0.0,0.0,0.0,8.999999999999999e-08
1758482329657492300,4595,1758482329660543872,base_link,-0.0008007153042454932,-0.00011384497601221246,-0.7424739781440013,-0.669874419330477,1.0,0.0,0.0,0.0,1.0,0.0,0.0,0.0,1.0,0.00040229130536317825,-0.00027945288456976425,-0.0009128220845013857,1.2184696791468346e-07,0.0,0.0,0.0,1.2184696791468346e-07,0.0,0.0,0.0,1.2184696791468346e-07,0.0,1.202169221539125e-15,9.81645665,8.999999999999999e-08,0.0,0.0,0.0,8.999999999999999e-08,0.0,0.0,0.0,8.999999999999999e-08
1758482329908444800,4596,1758482329910733312,base_link,-0.0007986356641806245,-0.00011455727319848544,-0.7424769627619158,-0.6698711135924191,1.0,0.0,0.0,0.0,1.0,0.0,0.0,0.0,1.0,0.0002755196765065193,-0.00026970054022967826,-0.000926310196518898,1.2184696791468346e-07,0.0,0.0,0.0,1.2184696791468346e-07,0.0,0.0,0.0,1.2184696791468346e-07,0.0,1.202169221539125e-15,9.81645665,8.999999999999999e-08,0.0,0.0,0.0,8.999999999999999e-08,0.0,0.0,0.0,8.999999999999999e-08
1758482330159239700,4597,1758482330160849536,base_link,-0.0007994164880557541,-0.0001127207149243648,-0.7424761693554561,-0.669871992373593,1.0,0.0,0.0,0.0,1.0,0.0,0.0,0.0,1.0,0.0004173468332737684,-0.0003863438032567502,-0.0009250779403373599,1.2184696791468346e-07,0.0,0.0,0.0,1.2184696791468346e-07,0.0,0.0,0.0,1.2184696791468346e-07,0.0,1.2009682532858392e-15,9.80665,8.999999999999999e-08,0.0,0.0,0.0,8.999999999999999e-08,0.0,0.0,0.0,8.999999999999999e-08
1758482330410580400,4598,1758482330411031296,base_link,-0.0008024635484929839,-0.00011059529068793105,-0.7424798626916346,-0.6698678954229305,1.0,0.0,0.0,0.0,1.0,0.0,0.0,0.0,1.0,0.0003548520617187023,-0.0003399359993636609,-0.0008297179592773318,1.2184696791468346e-07,0.0,0.0,0.0,1.2184696791468346e-07,0.0,0.0,0.0,1.2184696791468346e-07,0.0,1.202169221539125e-15,9.81645665,8.999999999999999e-08,0.0,0.0,0.0,8.999999999999999e-08,0.0,0.0,0.0,8.999999999999999e-08
1758482330661461300,4599,1758482330661158784,base_link,-0.0008074271193062824,-0.00010816729509444813,-0.7424818789869506,-0.6698656549915738,1.0,0.0,0.0,0.0,1.0,0.0,0.0,0.0,1.0,0.00040480424650013447,-0.0002999927382916213,-0.0009057405404746532,1.2184696791468346e-07,0.0,0.0,0.0,1.2184696791468346e-07,0.0,0.0,0.0,1.2184696791468346e-07,0.0,1.202169221539125e-15,9.81645665,8.999999999999999e-08,0.0,0.0,0.0,8.999999999999999e-08,0.0,0.0,0.0,8.999999999999999e-08
1758482330912222800,4600,1758482330911333632,base_link,-0.000809041292162752,-0.00010967019976026588,-0.7424866799682708,-0.669860331333577,1.0,0.0,0.0,0.0,1.0,0.0,0.0,0.0,1.0,0.00029617268592119217,-0.0002482349518686534,-0.0008699449244886637,1.2184696791468346e-07,0.0,0.0,0.0,1.2184696791468346e-07,0.0,0.0,0.0,1.2184696791468346e-07,0.0,1.202169221539125e-15,9.81645665,8.999999999999999e-08,0.0,0.0,0.0,8.999999999999999e-08,0.0,0.0,0.0,8.999999999999999e-08
1758482331163174300,4601,1758482331161460608,base_link,-0.0008095731803511577,-0.00010818749138258648,-0.7424896945497876,-0.6698569894940977,1.0,0.0,0.0,0.0,1.0,0.0,0.0,0.0,1.0,0.00033955834805965424,-0.0003509689122438432,-0.0008229509694501758,1.2184696791468346e-07,0.0,0.0,0.0,1.2184696791468346e-07,0.0,0.0,0.0,1.2184696791468346e-07,0.0,1.202169221539125e-15,9.81645665,8.999999999999999e-08,0.0,0.0,0.0,8.999999999999999e-08,0.0,0.0,0.0,8.999999999999999e-08
1758482331413783400,4602,1758482331411643392,base_link,-0.0008095313483793394,-0.00010940706456481239,-0.7424946677686574,-0.6698514768396062,1.0,0.0,0.0,0.0,1.0,0.0,0.0,0.0,1.0,0.00029153143987059593,-0.00033909408375620853,-0.0008849117439240217,1.2184696791468346e-07,0.0,0.0,0.0,1.2184696791468346e-07,0.0,0.0,0.0,1.2184696791468346e-07,0.0,1.202169221539125e-15,9.81645665,8.999999999999999e-08,0.0,0.0,0.0,8.999999999999999e-08,0.0,0.0,0.0,8.999999999999999e-08
1758482331659046100,4603,1758482331661759872,base_link,-0.0008112585027928579,-0.00010935881896390982,-0.7424965566881592,-0.6698493809853956,1.0,0.0,0.0,0.0,1.0,0.0,0.0,0.0,1.0,0.00031398655846714973,-0.00036548101343214523,-0.0009493754478171468,1.2184696791468346e-07,0.0,0.0,0.0,1.2184696791468346e-07,0.0,0.0,0.0,1.2184696791468346e-07,0.0,1.202169221539125e-15,9.81645665,8.999999999999999e-08,0.0,0.0,0.0,8.999999999999999e-08,0.0,0.0,0.0,8.999999999999999e-08
1758482331909517900,4604,1758482331911943680,base_link,-0.0008112715882404395,-0.00010762268052172024,-0.7425012930756463,-0.6698441311504956,1.0,0.0,0.0,0.0,1.0,0.0,0.0,0.0,1.0,0.00034326151944696903,-0.0003664284013211728,-0.0008662998443469405,1.2184696791468346e-07,0.0,0.0,0.0,1.2184696791468346e-07,0.0,0.0,0.0,1.2184696791468346e-07,0.0,1.202169221539125e-15,9.81645665,8.999999999999999e-08,0.0,0.0,0.0,8.999999999999999e-08,0.0,0.0,0.0,8.999999999999999e-08
1758482332160719100,4605,1758482332162066048,base_link,-0.000806567929126184,-0.00010955663970528964,-0.7425026081975844,-0.6698426787427798,1.0,0.0,0.0,0.0,1.0,0.0,0.0,0.0,1.0,0.00034113763831555843,-0.00019919872283935558,-0.0008925058646127582,1.2184696791468346e-07,0.0,0.0,0.0,1.2184696791468346e-07,0.0,0.0,0.0,1.2184696791468346e-07,0.0,1.202169221539125e-15,9.81645665,8.999999999999999e-08,0.0,0.0,0.0,8.999999999999999e-08,0.0,0.0,0.0,8.999999999999999e-08
1758482332411377800,4606,1758482332412241664,base_link,-0.0008059220791392597,-0.0001094826741877628,-0.7425071497754979,-0.6698376452808639,1.0,0.0,0.0,0.0,1.0,0.0,0.0,0.0,1.0,0.00028436677530407906,-0.0002723743673413993,-0.0008149456698447466,1.2184696791468346e-07,0.0,0.0,0.0,1.2184696791468346e-07,0.0,0.0,0.0,1.2184696791468346e-07,0.0,1.202169221539125e-15,9.81645665,8.999999999999999e-08,0.0,0.0,0.0,8.999999999999999e-08,0.0,0.0,0.0,8.999999999999999e-08
1758482332662173800,4607,1758482332662365056,base_link,-0.0008083244277583409,-0.00011041968847804667,-0.7425094702144405,-0.6698350700440987,1.0,0.0,0.0,0.0,1.0,0.0,0.0,0.0,1.0,0.0003439667634665966,-0.0002489250618964435,-0.0009162236237898469,1.2184696791468346e-07,0.0,0.0,0.0,1.2184696791468346e-07,0.0,0.0,0.0,1.2184696791468346e-07,0.0,1.202169221539125e-15,9.81645665,8.999999999999999e-08,0.0,0.0,0.0,8.999999999999999e-08,0.0,0.0,0.0,8.999999999999999e-08
1758482332913117200,4608,1758482332912547328,base_link,-0.0008067967922189079,-0.00010928477028346275,-0.7425128939931176,-0.6698312768076301,1.0,0.0,0.0,0.0,1.0,0.0,0.0,0.0,1.0,0.0003462228924036026,-0.000305492663756013,-0.0009561392944306135,1.2184696791468346e-07,0.0,0.0,0.0,1.2184696791468346e-07,0.0,0.0,0.0,1.2184696791468346e-07,0.0,1.202169221539125e-15,9.81645665,8.999999999999999e-08,0.0,0.0,0.0,8.999999999999999e-08,0.0,0.0,0.0,8.999999999999999e-08
1758482333164179400,4609,1758482333162664832,base_link,-0.0007989557308649992,-0.0001090467762934994,-0.7425177702658637,-0.6698258808212405,1.0,0.0,0.0,0.0,1.0,0.0,0.0,0.0,1.0,0.00018430803902447224,-0.00029883231036365043,-0.0009443325689062476,1.2184696791468346e-07,0.0,0.0,0.0,1.2184696791468346e-07,0.0,0.0,0.0,1.2184696791468346e-07,0.0,1.202169221539125e-15,9.81645665,8.999999999999999e-08,0.0,0.0,0.0,8.999999999999999e-08,0.0,0.0,0.0,8.999999999999999e-08
1758482333415112100,4610,1758482333412850944,base_link,-0.0007977094036522717,-0.00011080791974195068,-0.7425203003812232,-0.6698230773145177,1.0,0.0,0.0,0.0,1.0,0.0,0.0,0.0,1.0,0.0003203835804015398,-0.00027250172570347797,-0.0008865840500220656,1.2184696791468346e-07,0.0,0.0,0.0,1.2184696791468346e-07,0.0,0.0,0.0,1.2184696791468346e-07,0.0,1.202169221539125e-15,9.81645665,8.999999999999999e-08,0.0,0.0,0.0,8.999999999999999e-08,0.0,0.0,0.0,8.999999999999999e-08
1758482333660173400,4611,1758482333662972032,base_link,-0.0008007721024744281,-0.0001138137805886432,-0.7425233042243863,-0.6698197432848352,1.0,0.0,0.0,0.0,1.0,0.0,0.0,0.0,1.0,0.0003560862969607115,-0.00021000392735004436,-0.0008312372956424952,1.2184696791468346e-07,0.0,0.0,0.0,1.2184696791468346e-07,0.0,0.0,0.0,1.2184696791468346e-07,0.0,1.202169221539125e-15,9.81645665,8.999999999999999e-08,0.0,0.0,0.0,8.999999999999999e-08,0.0,0.0,0.0,8.999999999999999e-08
1758482333910622900,4612,1758482333913149440,base_link,-0.000797199610484751,-0.00011436724434331424,-0.7425282998719317,-0.6698142095254573,1.0,0.0,0.0,0.0,1.0,0.0,0.0,0.0,1.0,0.0003646654076874256,-0.00035299500450491916,-0.0008381408406421542,1.2184696791468346e-07,0.0,0.0,0.0,1.2184696791468346e-07,0.0,0.0,0.0,1.2184696791468346e-07,0.0,1.2009682532858392e-15,9.80665,8.999999999999999e-08,0.0,0.0,0.0,8.999999999999999e-08,0.0,0.0,0.0,8.999999999999999e-08
1758482334161506300,4613,1758482334163273600,base_link,-0.000799205493254906,-0.00011536414148452633,-0.7425305902967086,-0.6698116678853212,1.0,0.0,0.0,0.0,1.0,0.0,0.0,0.0,1.0,0.0003466589841991663,-0.00026490679010748874,-0.0008942047134041786,1.2184696791468346e-07,0.0,0.0,0.0,1.2184696791468346e-07,0.0,0.0,0.0,1.2184696791468346e-07,0.0,1.202169221539125e-15,9.81645665,8.999999999999999e-08,0.0,0.0,0.0,8.999999999999999e-08,0.0,0.0,0.0,8.999999999999999e-08
1758482334412804100,4614,1758482334413452032,base_link,-0.0007972448174063759,-0.00011656999360576546,-0.7425350267957829,-0.6698067518273638,1.0,0.0,0.0,0.0,1.0,0.0,0.0,0.0,1.0,0.0003111942205578089,-0.0002588336355984212,-0.0008644568733870983,1.2184696791468346e-07,0.0,0.0,0.0,1.2184696791468346e-07,0.0,0.0,0.0,1.2184696791468346e-07,0.0,1.202169221539125e-15,9.81645665,8.999999999999999e-08,0.0,0.0,0.0,8.999999999999999e-08,0.0,0.0,0.0,8.999999999999999e-08
1758482334663600700,4615,1758482334663571328,base_link,-0.0007990864290544021,-0.00011781936511329954,-0.7425365885696169,-0.6698050180573979,1.0,0.0,0.0,0.0,1.0,0.0,0.0,0.0,1.0,0.0003255635965615511,-0.0002650110982358457,-0.0009114760905504227,1.2184696791468346e-07,0.0,0.0,0.0,1.2184696791468346e-07,0.0,0.0,0.0,1.2184696791468346e-07,0.0,1.202169221539125e-15,9.81645665,8.999999999999999e-08,0.0,0.0,0.0,8.999999999999999e-08,0.0,0.0,0.0,8.999999999999999e-08
1758482334914459800,4616,1758482334913758976,base_link,-0.0007978393327466287,-0.00012077395943063989,-0.7425416386021382,-0.6697994205791024,1.0,0.0,0.0,0.0,1.0,0.0,0.0,0.0,1.0,0.00031317747198045254,-0.0002691147383302451,-0.0009132052073255181,1.2184696791468346e-07,0.0,0.0,0.0,1.2184696791468346e-07,0.0,0.0,0.0,1.2184696791468346e-07,0.0,1.202169221539125e-15,9.81645665,8.999999999999999e-08,0.0,0.0,0.0,8.999999999999999e-08,0.0,0.0,0.0,8.999999999999999e-08
1758482335165581600,4617,1758482335163873408,base_link,-0.0007906571479546515,-0.0001226419087586254,-0.7425420255144756,-0.6697989998238998,1.0,0.0,0.0,0.0,1.0,0.0,0.0,0.0,1.0,0.000330392736941576,-0.00029354938305914413,-0.000904953689314425,1.2184696791468346e-07,0.0,0.0,0.0,1.2184696791468346e-07,0.0,0.0,0.0,1.2184696791468346e-07,0.0,1.202169221539125e-15,9.81645665,8.999999999999999e-08,0.0,0.0,0.0,8.999999999999999e-08,0.0,0.0,0.0,8.999999999999999e-08
1758482335417425000,4618,1758482335414053632,base_link,-0.0007919796992337973,-0.00012070275201483061,-0.7425438172206027,-0.6697970123152669,1.0,0.0,0.0,0.0,1.0,0.0,0.0,0.0,1.0,0.00025708298198878765,-0.0002541842404752971,-0.0008915489306673408,1.2184696791468346e-07,0.0,0.0,0.0,1.2184696791468346e-07,0.0,0.0,0.0,1.2184696791468346e-07,0.0,1.2009682532858392e-15,9.80665,8.999999999999999e-08,0.0,0.0,0.0,8.999999999999999e-08,0.0,0.0,0.0,8.999999999999999e-08
1758482335661450600,4619,1758482335664179584,base_link,-0.0007957791085984793,-0.00012178846705620271,-0.7425468186005042,-0.6697936802400047,1.0,0.0,0.0,0.0,1.0,0.0,0.0,0.0,1.0,0.0003405977040529251,-0.00034040934406220924,-0.0008842204697430134,1.2184696791468346e-07,0.0,0.0,0.0,1.2184696791468346e-07,0.0,0.0,0.0,1.2184696791468346e-07,0.0,1.202169221539125e-15,9.81645665,8.999999999999999e-08,0.0,0.0,0.0,8.999999999999999e-08,0.0,0.0,0.0,8.999999999999999e-08
1758482335912021200,4620,1758482335914351872,base_link,-0.0007928627271702965,-0.000122587551736368,-0.7425525176145026,-0.6697873654566437,1.0,0.0,0.0,0.0,1.0,0.0,0.0,0.0,1.0,0.0003448375500738621,-0.0001733568497002126,-0.0008462324040010571,1.2184696791468346e-07,0.0,0.0,0.0,1.2184696791468346e-07,0.0,0.0,0.0,1.2184696791468346e-07,0.0,1.202169221539125e-15,9.81645665,8.999999999999999e-08,0.0,0.0,0.0,8.999999999999999e-08,0.0,0.0,0.0,8.999999999999999e-08
1758482336164327800,4621,1758482336165470400,base_link,-0.0007874785294326066,-0.00012519771677198312,-0.7425542666791702,-0.6697854322390545,1.0,0.0,0.0,0.0,1.0,0.0,0.0,0.0,1.0,0.00041573611088097095,-0.0002360383514314891,-0.0008327764226123691,1.2184696791468346e-07,0.0,0.0,0.0,1.2184696791468346e-07,0.0,0.0,0.0,1.2184696791468346e-07,0.0,1.202169221539125e-15,9.81645665,8.999999999999999e-08,0.0,0.0,0.0,8.999999999999999e-08,0.0,0.0,0.0,8.999999999999999e-08
1758482336415176300,4622,1758482336415653952,base_link,-0.000789332998967798,-0.00012854446436990575,-0.7425591391667707,-0.6697800275236953,1.0,0.0,0.0,0.0,1.0,0.0,0.0,0.0,1.0,0.00036025745794177055,-0.0002797413617372514,-0.0009146471275016665,1.2184696791468346e-07,0.0,0.0,0.0,1.2184696791468346e-07,0.0,0.0,0.0,1.2184696791468346e-07,0.0,1.202169221539125e-15,9.81645665,8.999999999999999e-08,0.0,0.0,0.0,8.999999999999999e-08,0.0,0.0,0.0,8.999999999999999e-08
1758482336666201200,4623,1758482336665772992,base_link,-0.0007965838693821379,-0.00012914976259409893,-0.7425617461157866,-0.6697771285882728,1.0,0.0,0.0,0.0,1.0,0.0,0.0,0.0,1.0,0.00035342946648597717,-0.0002942744176834823,-0.000891576986759901,1.2184696791468346e-07,0.0,0.0,0.0,1.2184696791468346e-07,0.0,0.0,0.0,1.2184696791468346e-07,0.0,1.202169221539125e-15,9.81645665,8.999999999999999e-08,0.0,0.0,0.0,8.999999999999999e-08,0.0,0.0,0.0,8.999999999999999e-08
1758482336917429000,4624,1758482336914947584,base_link,-0.0008111140642732935,-0.0001289416798005166,-0.7425674916010686,-0.6697707412878791,1.0,0.0,0.0,0.0,1.0,0.0,0.0,0.0,1.0,0.0003702300600707531,-0.00029963674023747455,-0.0009278184734284878,1.2184696791468346e-07,0.0,0.0,0.0,1.2184696791468346e-07,0.0,0.0,0.0,1.2184696791468346e-07,0.0,1.202169221539125e-15,9.81645665,8.999999999999999e-08,0.0,0.0,0.0,8.999999999999999e-08,0.0,0.0,0.0,8.999999999999999e-08
1758482337162167000,4625,1758482337165070464,base_link,-0.0008398902035619247,-0.0001305867387389929,-0.7425686974600951,-0.6697693685769505,1.0,0.0,0.0,0.0,1.0,0.0,0.0,0.0,1.0,0.00035525928251445293,-0.00023865397088229667,-0.0008880066452547908,1.2184696791468346e-07,0.0,0.0,0.0,1.2184696791468346e-07,0.0,0.0,0.0,1.2184696791468346e-07,0.0,1.202169221539125e-15,9.81645665,8.999999999999999e-08,0.0,0.0,0.0,8.999999999999999e-08,0.0,0.0,0.0,8.999999999999999e-08
1758482337413139800,4626,1758482337415254784,base_link,-0.0008779604585465754,-0.0001318063113263849,-0.7425735605514218,-0.6697639278003209,1.0,0.0,0.0,0.0,1.0,0.0,0.0,0.0,1.0,0.00031455373391509056,-0.00025226152502000343,-0.0009239783976227045,1.2184696791468346e-07,0.0,0.0,0.0,1.2184696791468346e-07,0.0,0.0,0.0,1.2184696791468346e-07,0.0,1.202169221539125e-15,9.81645665,8.999999999999999e-08,0.0,0.0,0.0,8.999999999999999e-08,0.0,0.0,0.0,8.999999999999999e-08
1758482337663935200,4627,1758482337665372032,base_link,-0.0009253791677984282,-0.0001337387989157048,-0.742577250164001,-0.6697597728485938,1.0,0.0,0.0,0.0,1.0,0.0,0.0,0.0,1.0,0.0003629343118518591,-0.00028588902205228816,-0.0009051376255229115,1.2184696791468346e-07,0.0,0.0,0.0,1.2184696791468346e-07,0.0,0.0,0.0,1.2184696791468346e-07,0.0,1.202169221539125e-15,9.81645665,8.999999999999999e-08,0.0,0.0,0.0,8.999999999999999e-08,0.0,0.0,0.0,8.999999999999999e-08
1758482337914629600,4628,1758482337915556352,base_link,-0.0009721195184004448,-0.00013400888055437163,-0.7425856978495949,-0.669750340331748,1.0,0.0,0.0,0.0,1.0,0.0,0.0,0.0,1.0,0.0003626258112490177,-0.00036922399885952484,-0.0008120463462546468,1.2184696791468346e-07,0.0,0.0,0.0,1.2184696791468346e-07,0.0,0.0,0.0,1.2184696791468346e-07,0.0,1.202169221539125e-15,9.81645665,8.999999999999999e-08,0.0,0.0,0.0,8.999999999999999e-08,0.0,0.0,0.0,8.999999999999999e-08
1758482338165423100,4629,1758482338166676928,base_link,-0.0010252658540971606,-0.00013607802375734183,-0.7425898831533326,-0.6697456201805424,1.0,0.0,0.0,0.0,1.0,0.0,0.0,0.0,1.0,0.0004138224758207798,-0.00030384212732315074,-0.0008839779766276479,1.2184696791468346e-07,0.0,0.0,0.0,1.2184696791468346e-07,0.0,0.0,0.0,1.2184696791468346e-07,0.0,1.202169221539125e-15,9.81645665,8.999999999999999e-08,0.0,0.0,0.0,8.999999999999999e-08,0.0,0.0,0.0,8.999999999999999e-08
1758482338416448300,4630,1758482338416853056,base_link,-0.0010753588891998145,-0.00013375425774379964,-0.742596820914773,-0.6697378496698023,1.0,0.0,0.0,0.0,1.0,0.0,0.0,0.0,1.0,0.00028910068795084953,-0.000327853485941887,-0.0008643242763355374,1.2184696791468346e-07,0.0,0.0,0.0,1.2184696791468346e-07,0.0,0.0,0.0,1.2184696791468346e-07,0.0,1.202169221539125e-15,9.81645665,8.999999999999999e-08,0.0,0.0,0.0,8.999999999999999e-08,0.0,0.0,0.0,8.999999999999999e-08
1758482338667641600,4631,1758482338666976704,base_link,-0.0011290160566036884,-0.00013644453625354715,-0.7426026198553494,-0.6697313309750439,1.0,0.0,0.0,0.0,1.0,0.0,0.0,0.0,1.0,0.0003866229671984911,-0.00034681777469813835,-0.0009000409627333283,1.2184696791468346e-07,0.0,0.0,0.0,1.2184696791468346e-07,0.0,0.0,0.0,1.2184696791468346e-07,0.0,1.202169221539125e-15,9.81645665,8.999999999999999e-08,0.0,0.0,0.0,8.999999999999999e-08,0.0,0.0,0.0,8.999999999999999e-08
1758482338918102700,4632,1758482338916153856,base_link,-0.0011818418466749343,-0.0001388216634026134,-0.7426103022929015,-0.6697227209127974,1.0,0.0,0.0,0.0,1.0,0.0,0.0,0.0,1.0,0.0003312865737825632,-0.0003147509414702655,-0.0009291388560086489,1.2184696791468346e-07,0.0,0.0,0.0,1.2184696791468346e-07,0.0,0.0,0.0,1.2184696791468346e-07,0.0,1.202169221539125e-15,9.81645665,8.999999999999999e-08,0.0,0.0,0.0,8.999999999999999e-08,0.0,0.0,0.0,8.999999999999999e-08
1758482339163477600,4633,1758482339166272896,base_link,-0.0012360856117227387,-0.00014158395759964528,-0.7426173655321648,-0.6697147903820032,1.0,0.0,0.0,0.0,1.0,0.0,0.0,0.0,1.0,0.00035667140036821365,-0.0003141537308692933,-0.0008538237307220697,1.2184696791468346e-07,0.0,0.0,0.0,1.2184696791468346e-07,0.0,0.0,0.0,1.2184696791468346e-07,0.0,1.202169221539125e-15,9.81645665,8.999999999999999e-08,0.0,0.0,0.0,8.999999999999999e-08,0.0,0.0,0.0,8.999999999999999e-08
1758482339414123600,4634,1758482339416459520,base_link,-0.0012921658477720577,-0.0001467542722192469,-0.7426288039857597,-0.6697019995948088,1.0,0.0,0.0,0.0,1.0,0.0,0.0,0.0,1.0,0.0003881158772855997,-0.0003028979990631343,-0.0008553824154660106,1.2184696791468346e-07,0.0,0.0,0.0,1.2184696791468346e-07,0.0,0.0,0.0,1.2184696791468346e-07,0.0,1.202169221539125e-15,9.81645665,8.999999999999999e-08,0.0,0.0,0.0,8.999999999999999e-08,0.0,0.0,0.0,8.999999999999999e-08
1758482339664973900,4635,1758482339666573440,base_link,-0.0013511127968879172,-0.0001490570057479964,-0.7426366570358739,-0.6696931744484194,1.0,0.0,0.0,0.0,1.0,0.0,0.0,0.0,1.0,0.00037255859933793545,-0.00039458624087274085,-0.0009254850447177887,1.2184696791468346e-07,0.0,0.0,0.0,1.2184696791468346e-07,0.0,0.0,0.0,1.2184696791468346e-07,0.0,1.2718253802297035e-15,10.38524235,8.999999999999999e-08,0.0,0.0,0.0,8.999999999999999e-08,0.0,0.0,0.0,8.999999999999999e-08
1758482339916200200,4636,1758482339916751872,base_link,-0.0013901952516736404,-0.00015142830808343208,-0.7426474080596247,-0.6696811716996012,1.0,0.0,0.0,0.0,1.0,0.0,0.0,0.0,1.0,-0.0003810077905654907,0.0004876123275607823,-0.0008180495351552964,1.2184696791468346e-07,0.0,0.0,0.0,1.2184696791468346e-07,0.0,0.0,0.0,1.2184696791468346e-07,0.0,1.2670215072165603e-15,10.34601575,8.999999999999999e-08,0.0,0.0,0.0,8.999999999999999e-08,0.0,0.0,0.0,8.999999999999999e-08
1758482340166592900,4637,1758482340166877056,base_link,0.00042793338139806257,3.0141582734820835e-05,-0.7426657382568836,-0.669662166456986,1.0,0.0,0.0,0.0,1.0,0.0,0.0,0.0,1.0,-0.004602755419909954,0.004743168130517006,-0.0007365527562797075,1.2184696791468346e-07,0.0,0.0,0.0,1.2184696791468346e-07,0.0,0.0,0.0,1.2184696791468346e-07,0.0,1.2946437770421345e-15,10.5715687,8.999999999999999e-08,0.0,0.0,0.0,8.999999999999999e-08,0.0,0.0,0.0,8.999999999999999e-08
1758482340417490400,4638,1758482340418047552,base_link,-7.340686122290715e-06,-1.0545106946136745e-05,-0.7426816109398398,-0.6696447002752429,1.0,0.0,0.0,0.0,1.0,0.0,0.0,0.0,1.0,0.005805576220154762,-0.005835650023072958,-0.0010117455385625356,1.2184696791468346e-07,0.0,0.0,0.0,1.2184696791468346e-07,0.0,0.0,0.0,1.2184696791468346e-07,0.0,1.3162612056012796e-15,10.7480884,8.999999999999999e-08,0.0,0.0,0.0,8.999999999999999e-08,0.0,0.0,0.0,8.999999999999999e-08
1758482340669024900,4639,1758482340668167616,base_link,-0.0008141087490721562,-0.00011279710607160109,-0.7426799989234375,-0.6696459838622495,1.0,0.0,0.0,0.0,1.0,0.0,0.0,0.0,1.0,0.0032325899228453636,-0.002358281286433339,-0.0010620183311402796,1.2184696791468346e-07,0.0,0.0,0.0,1.2184696791468346e-07,0.0,0.0,0.0,1.2184696791468346e-07,0.0,1.1493266183945482e-15,9.38496405,8.999999999999999e-08,0.0,0.0,0.0,8.999999999999999e-08,0.0,0.0,0.0,8.999999999999999e-08
1758482340919423300,4640,1758482340917352704,base_link,-0.0013078761671013249,-0.00018690599384531612,-0.7426849753448348,-0.6696396657330891,1.0,0.0,0.0,0.0,1.0,0.0,0.0,0.0,1.0,0.0025579475332051516,-0.0021111597307026386,-0.0010070803109556434,1.2184696791468346e-07,0.0,0.0,0.0,1.2184696791468346e-07,0.0,0.0,0.0,1.2184696791468346e-07,0.0,1.188958570752981e-15,9.7085835,8.999999999999999e-08,0.0,0.0,0.0,8.999999999999999e-08,0.0,0.0,0.0,8.999999999999999e-08
1758482341165055700,4641,1758482341167467136,base_link,-0.0016452042132456205,-0.0002642443290918394,-0.7426840476520084,-0.6696399247664826,1.0,0.0,0.0,0.0,1.0,0.0,0.0,0.0,1.0,0.0014455192722380161,-0.0003877333365380765,-0.0009730521123856306,1.2184696791468346e-07,0.0,0.0,0.0,1.2184696791468346e-07,0.0,0.0,0.0,1.2184696791468346e-07,0.0,1.1385179041149754e-15,9.2967042,8.999999999999999e-08,0.0,0.0,0.0,8.999999999999999e-08,0.0,0.0,0.0,8.999999999999999e-08
1758482341415474700,4642,1758482341417648128,base_link,-0.0019153615785133294,-0.00031040483216570805,-0.7426842601021597,-0.6696389511037805,1.0,0.0,0.0,0.0,1.0,0.0,0.0,0.0,1.0,0.0016271737404167652,-0.0008106334134936334,-0.0010673576034605503,1.2184696791468346e-07,0.0,0.0,0.0,1.2184696791468346e-07,0.0,0.0,0.0,1.2184696791468346e-07,0.0,1.1229053168222594e-15,9.16921775,8.999999999999999e-08,0.0,0.0,0.0,8.999999999999999e-08,0.0,0.0,0.0,8.999999999999999e-08
1758482341666412100,4643,1758482341667769984,base_link,-0.0020439213710308816,-0.00031548734551059223,-0.7426736396925593,-0.669650347389569,1.0,0.0,0.0,0.0,1.0,0.0,0.0,0.0,1.0,0.0005187469068914652,-0.0015717602800577881,-0.001288715051487088,1.2184696791468346e-07,0.0,0.0,0.0,1.2184696791468346e-07,0.0,0.0,0.0,1.2184696791468346e-07,0.0,1.1229053168222594e-15,9.16921775,8.999999999999999e-08,0.0,0.0,0.0,8.999999999999999e-08,0.0,0.0,0.0,8.999999999999999e-08
1758482341917234700,4644,1758482341917942528,base_link,-0.002247477548465089,-0.0003323623178328777,-0.7426588820364021,-0.6696660535762584,1.0,0.0,0.0,0.0,1.0,0.0,0.0,0.0,1.0,-0.000938209006562829,-0.0010626604780554774,-0.0011531484778970478,1.2184696791468346e-07,0.0,0.0,0.0,1.2184696791468346e-07,0.0,0.0,0.0,1.2184696791468346e-07,0.0,1.1217043485689736e-15,9.1594111,8.999999999999999e-08,0.0,0.0,0.0,8.999999999999999e-08,0.0,0.0,0.0,8.999999999999999e-08
1758482342167820000,4645,1758482342168064128,base_link,-0.018969756377330792,0.00048577900519173835,-0.7409865902373256,-0.6712516558267881,1.0,0.0,0.0,0.0,1.0,0.0,0.0,0.0,1.0,0.2562556564807892,-0.3099105656147003,-0.09145766496658321,1.2184696791468346e-07,0.0,0.0,0.0,1.2184696791468346e-07,0.0,0.0,0.0,1.2184696791468346e-07,0.0,1.1229053168222594e-15,9.16921775,8.999999999999999e-08,0.0,0.0,0.0,8.999999999999999e-08,0.0,0.0,0.0,8.999999999999999e-08
1758482342418875300,4646,1758482342419246400,base_link,-0.09083619892336325,-0.000937681519013785,-0.6970789506793622,-0.7112164524519123,1.0,0.0,0.0,0.0,1.0,0.0,0.0,0.0,1.0,0.4409216046333313,-0.4432264268398286,-0.8456994295120239,1.2184696791468346e-07,0.0,0.0,0.0,1.2184696791468346e-07,0.0,0.0,0.0,1.2184696791468346e-07,0.0,1.0916801422368277e-15,8.91424485,8.999999999999999e-08,0.0,0.0,0.0,8.999999999999999e-08,0.0,0.0,0.0,8.999999999999999e-08
1758482342669627900,4647,1758482342669362624,base_link,-0.14876495314602683,-0.021498796080996536,-0.5880875807793122,-0.794707359860008,1.0,0.0,0.0,0.0,1.0,0.0,0.0,0.0,1.0,0.18557758629322052,-0.10370737314224258,-1.2312040328979492,1.2184696791468346e-07,0.0,0.0,0.0,1.2184696791468346e-07,0.0,0.0,0.0,1.2184696791468346e-07,0.0196133,0.02941995000000115,9.40457735,8.999999999999999e-08,0.0,0.0,0.0,8.999999999999999e-08,0.0,0.0,0.0,8.999999999999999e-08
1758482342920371400,4648,1758482342919545920,base_link,-0.14924845078092258,-0.04617021791630542,-0.4581615647572047,-0.8750321088373187,1.0,0.0,0.0,0.0,1.0,0.0,0.0,0.0,1.0,-0.00011080550029873848,0.002466213889419884,-1.2103945016860962,1.2184696791468346e-07,0.0,0.0,0.0,1.2184696791468346e-07,0.0,0.0,0.0,1.2184696791468346e-07,0.08825985,0.16671305000000122,10.0420096,8.999999999999999e-08,0.0,0.0,0.0,8.999999999999999e-08,0.0,0.0,0.0,8.999999999999999e-08
1758482343166103300,4649,1758482343168665216,base_link,-0.13741410779888316,-0.06511299807846344,-0.32765921642989126,-0.9324790069205958,1.0,0.0,0.0,0.0,1.0,0.0,0.0,0.0,1.0,-0.19949500262737274,-0.027656994760036604,-1.1145083904266357,1.2184696791468346e-07,0.0,0.0,0.0,1.2184696791468346e-07,0.0,0.0,0.0,1.2184696791468346e-07,0.06864655,0.4118793000000013,10.2381426,8.999999999999999e-08,0.0,0.0,0.0,8.999999999999999e-08,0.0,0.0,0.0,8.999999999999999e-08
1758482343416467700,4650,1758482343418840576,base_link,-0.08272055701148334,-0.0516975852688942,-0.20093549703352953,-0.9747356539887948,1.0,0.0,0.0,0.0,1.0,0.0,0.0,0.0,1.0,-0.4971439242362976,-0.2065394520759584,-1.0545364618301392,1.2184696791468346e-07,0.0,0.0,0.0,1.2184696791468346e-07,0.0,0.0,0.0,1.2184696791468346e-07,-0.0392266,0.6374322500000013,10.22833595,8.999999999999999e-08,0.0,0.0,0.0,8.999999999999999e-08,0.0,0.0,0.0,8.999999999999999e-08
1758482343667593000,4651,1758482343668962944,base_link,-0.03365216988511794,-0.02403078661635846,-0.07321150327197945,-0.9964587942033925,1.0,0.0,0.0,0.0,1.0,0.0,0.0,0.0,1.0,-0.26843464374542236,-0.20360927283763897,-1.0110834836959839,1.2184696791468346e-07,0.0,0.0,0.0,1.2184696791468346e-07,0.0,0.0,0.0,1.2184696791468346e-07,-0.24516625,0.7747253500000013,9.97336305,8.999999999999999e-08,0.0,0.0,0.0,8.999999999999999e-08,0.0,0.0,0.0,8.999999999999999e-08
1758482343918278900,4652,1758482343919136512,base_link,-0.01001657185314329,-0.004458374668715465,0.018647809828757023,-0.9997659978075943,1.0,0.0,0.0,0.0,1.0,0.0,0.0,0.0,1.0,-0.13689780235290527,-0.14612004160881048,-0.4349415600299835,1.2184696791468346e-07,0.0,0.0,0.0,1.2184696791468346e-07,0.0,0.0,0.0,1.2184696791468346e-07,-0.46091255,0.6962721500000013,9.81645665,8.999999999999999e-08,0.0,0.0,0.0,8.999999999999999e-08,0.0,0.0,0.0,8.999999999999999e-08
1758482344169368100,4653,1758482344169254784,base_link,0.004540671259124086,0.010546504161709224,0.033842552524780245,-0.9993612135724956,1.0,0.0,0.0,0.0,1.0,0.0,0.0,0.0,1.0,-0.09639469534158707,-0.10647831857204436,0.07054630666971208,1.2184696791468346e-07,0.0,0.0,0.0,1.2184696791468346e-07,0.0,0.0,0.0,1.2184696791468346e-07,-0.5687857000000001,0.5491724000000012,9.81645665,8.999999999999999e-08,0.0,0.0,0.0,8.999999999999999e-08,0.0,0.0,0.0,8.999999999999999e-08
1758482344420058100,4654,1758482344420440128,base_link,0.016484834037752916,0.022052002803172023,0.01654621538170581,-0.9994839579381246,1.0,0.0,0.0,0.0,1.0,0.0,0.0,0.0,1.0,-0.08777665346860886,-0.08780150860548018,0.14480240643024445,1.2184696791468346e-07,0.0,0.0,0.0,1.2184696791468346e-07,0.0,0.0,0.0,1.2184696791468346e-07,-0.53936575,0.4805258500000012,9.8262633,8.999999999999999e-08,0.0,0.0,0.0,8.999999999999999e-08,0.0,0.0,0.0,8.999999999999999e-08
1758482344671050300,4655,1758482344670552000,base_link,0.028553617789530458,0.0328232726828708,0.004367888559363544,-0.9990436653275213,1.0,0.0,0.0,0.0,1.0,0.0,0.0,0.0,1.0,-0.09354273229837418,-0.08832517266273499,0.05401176586747171,1.2184696791468346e-07,0.0,0.0,0.0,1.2184696791468346e-07,0.0,0.0,0.0,1.2184696791468346e-07,-0.44129925000000003,0.4412992500000012,9.8458766,8.999999999999999e-08,0.0,0.0,0.0,8.999999999999999e-08,0.0,0.0,0.0,8.999999999999999e-08
1758482344921833100,4656,1758482344920729664,base_link,0.036914917229032285,0.03952027843581946,0.0022685359541558285,-0.9985340706370285,1.0,0.0,0.0,0.0,1.0,0.0,0.0,0.0,1.0,-0.03807275742292404,-0.023622484877705574,-0.0057567460462450955,1.2184696791468346e-07,0.0,0.0,0.0,1.2184696791468346e-07,0.0,0.0,0.0,1.2184696791468346e-07,-0.3530394,0.3824593500000012,9.87529655,8.999999999999999e-08,0.0,0.0,0.0,8.999999999999999e-08,0.0,0.0,0.0,8.999999999999999e-08
1758482345167012600,4657,1758482345169853824,base_link,0.03783047780252357,0.03861938498375918,0.0037475695302784406,-0.9985305973155378,1.0,0.0,0.0,0.0,1.0,0.0,0.0,0.0,1.0,0.010721718892455101,0.031815484166145325,-0.014177479781210426,1.2184696791468346e-07,0.0,0.0,0.0,1.2184696791468346e-07,0.0,0.0,0.0,1.2184696791468346e-07,-0.26477955,0.3040061500000012,9.9047165,8.999999999999999e-08,0.0,0.0,0.0,8.999999999999999e-08,0.0,0.0,0.0,8.999999999999999e-08
1758482345417740700,4658,1758482345420023040,base_link,0.03427350779341206,0.03323581629177812,0.004802085321243156,-0.9988481602103103,1.0,0.0,0.0,0.0,1.0,0.0,0.0,0.0,1.0,0.037884242832660675,0.054067160934209824,-0.006495244801044471,1.2184696791468346e-07,0.0,0.0,0.0,1.2184696791468346e-07,0.0,0.0,0.0,1.2184696791468346e-07,-0.18632635,0.22555295000000122,9.89490985,8.999999999999999e-08,0.0,0.0,0.0,8.999999999999999e-08,0.0,0.0,0.0,8.999999999999999e-08
1758482345668562800,4659,1758482345670142336,base_link,0.029025973548671133,0.02637249773970578,0.0049331603984801315,-0.9992185187190057,1.0,0.0,0.0,0.0,1.0,0.0,0.0,0.0,1.0,0.04668622091412544,0.05724448710680008,-0.001371682621538646,1.2184696791468346e-07,0.0,0.0,0.0,1.2184696791468346e-07,0.0,0.0,0.0,1.2184696791468346e-07,-0.12748645,0.15690640000000122,9.87529655,8.999999999999999e-08,0.0,0.0,0.0,8.999999999999999e-08,0.0,0.0,0.0,8.999999999999999e-08
1758482345919484500,4660,1758482345920326400,base_link,0.022817306527940822,0.019413305902744402,0.004719071018053523,-0.9995400064256872,1.0,0.0,0.0,0.0,1.0,0.0,0.0,0.0,1.0,0.04958010092377663,0.05526028946042061,-0.0010783746838569708,1.2184696791468346e-07,0.0,0.0,0.0,1.2184696791468346e-07,0.0,0.0,0.0,1.2184696791468346e-07,-0.0784532,0.09806650000000121,9.8458766,8.999999999999999e-08,0.0,0.0,0.0,8.999999999999999e-08,0.0,0.0,0.0,8.999999999999999e-08
1758482346170320600,4661,1758482346170439808,base_link,0.016696033215443513,0.012851696900773606,0.004564987412586209,-0.9997675916189533,1.0,0.0,0.0,0.0,1.0,0.0,0.0,0.0,1.0,0.047186534851789474,0.04984033480286598,-0.0015493717510253252,1.2184696791468346e-07,0.0,0.0,0.0,1.2184696791468346e-07,0.0,0.0,0.0,1.2184696791468346e-07,-0.0392266,0.0588399000000012,9.83606995,8.999999999999999e-08,0.0,0.0,0.0,8.999999999999999e-08,0.0,0.0,0.0,8.999999999999999e-08
1758482346421141100,4662,1758482346420619776,base_link,0.011479554937579626,0.007788396485231375,0.0045674624914682225,-0.9998933438047344,1.0,0.0,0.0,0.0,1.0,0.0,0.0,0.0,1.0,0.03522177040576935,0.034630514681339264,-0.002271486679092054,1.2184696791468346e-07,0.0,0.0,0.0,1.2184696791468346e-07,0.0,0.0,0.0,1.2184696791468346e-07,-0.0196133,0.0294199500000012,9.8262633,8.999999999999999e-08,0.0,0.0,0.0,8.999999999999999e-08,0.0,0.0,0.0,8.999999999999999e-08
1758482346672225300,4663,1758482346671734720,base_link,0.007498557904760708,0.00426270377672633,0.004601444406671706,-0.9999522127058039,1.0,0.0,0.0,0.0,1.0,0.0,0.0,0.0,1.0,0.028512947261333466,0.023449288681149483,-0.0016745149623602657,1.2184696791468346e-07,0.0,0.0,0.0,1.2184696791468346e-07,0.0,0.0,0.0,1.2184696791468346e-07,-0.00980665,0.009806650000001202,9.81645665,8.999999999999999e-08,0.0,0.0,0.0,8.999999999999999e-08,0.0,0.0,0.0,8.999999999999999e-08
1758482346922830600,4664,1758482346921905728,base_link,0.004543434504637916,0.0018802833832346556,0.004592108983866361,-0.9999773668800616,1.0,0.0,0.0,0.0,1.0,0.0,0.0,0.0,1.0,0.023341104388237,0.017431681975722313,-0.001263182843104007,1.2184696791468346e-07,0.0,0.0,0.0,1.2184696791468346e-07,0.0,0.0,0.0,1.2184696791468346e-07,0.0,1.202169221539125e-15,9.81645665,8.999999999999999e-08,0.0,0.0,0.0,8.999999999999999e-08,0.0,0.0,0.0,8.999999999999999e-08
1758482347168287100,4665,1758482347171026816,base_link,0.0028794961931689574,0.01877019602199585,0.004473574591415675,-0.9998096695738365,1.0,0.0,0.0,0.0,1.0,0.0,0.0,0.0,1.0,0.00837686937302351,-0.4121858775615692,0.00024838827084754984,1.2184696791468346e-07,0.0,0.0,0.0,1.2184696791468346e-07,0.0,0.0,0.0,1.2184696791468346e-07,0.0,1.202169221539125e-15,9.81645665,8.999999999999999e-08,0.0,0.0,0.0,8.999999999999999e-08,0.0,0.0,0.0,8.999999999999999e-08
1758482347418771500,4666,1758482347421207296,base_link,0.000801530390697773,0.07607222212580933,0.004097916296960218,-0.9970935671499928,1.0,0.0,0.0,0.0,1.0,0.0,0.0,0.0,1.0,0.022559579461812973,-0.1461292952299118,-0.0009965961799025356,1.2184696791468346e-07,0.0,0.0,0.0,1.2184696791468346e-07,0.0,0.0,0.0,1.2184696791468346e-07,0.0,-0.009806649999998796,9.8262633,8.999999999999999e-08,0.0,0.0,0.0,8.999999999999999e-08,0.0,0.0,0.0,8.999999999999999e-08
1758482347669774000,4667,1758482347671322496,base_link,-0.000492602944799509,0.04956833747353384,0.004100725441707756,-0.9987621945755157,1.0,0.0,0.0,0.0,1.0,0.0,0.0,0.0,1.0,0.0022013674024492502,0.32109373807907104,-0.0015416459646076356,1.2184696791468346e-07,0.0,0.0,0.0,1.2184696791468346e-07,0.0,0.0,0.0,1.2184696791468346e-07,0.04903325,-0.009806649999998786,9.91452315,8.999999999999999e-08,0.0,0.0,0.0,8.999999999999999e-08,0.0,0.0,0.0,8.999999999999999e-08
1758482347920480800,4668,1758482347921503232,base_link,-0.0005224391267371961,0.016903992201891177,0.004246792959395008,-0.9998479618694822,1.0,0.0,0.0,0.0,1.0,0.0,0.0,0.0,1.0,-0.0034419388975948095,0.20145109295845032,-0.0008008310105651864,1.2184696791468346e-07,0.0,0.0,0.0,1.2184696791468346e-07,0.0,0.0,0.0,1.2184696791468346e-07,0.14709975,-0.009806649999998791,9.8654899,8.999999999999999e-08,0.0,0.0,0.0,8.999999999999999e-08,0.0,0.0,0.0,8.999999999999999e-08
1758482348171599600,4669,1758482348171621248,base_link,-0.0005009672996335214,-0.002010534541627886,0.004190721580473344,-0.9999890722579206,1.0,0.0,0.0,0.0,1.0,0.0,0.0,0.0,1.0,-0.0004996263887733221,0.11726391315460205,0.0009505918715149021,1.2184696791468346e-07,0.0,0.0,0.0,1.2184696791468346e-07,0.0,0.0,0.0,1.2184696791468346e-07,0.1765197,-0.0098066499999988,9.80665,8.999999999999999e-08,0.0,0.0,0.0,8.999999999999999e-08,0.0,0.0,0.0,8.999999999999999e-08
1758482348422545900,4670,1758482348421799936,base_link,-0.00046181989103385,-0.012297111192303329,0.004050974356623104,-0.9999160751710486,1.0,0.0,0.0,0.0,1.0,0.0,0.0,0.0,1.0,0.0002700979821383953,0.05971754714846611,0.0004099240759387539,1.2184696791468346e-07,0.0,0.0,0.0,1.2184696791468346e-07,0.0,0.0,0.0,1.2184696791468346e-07,0.16671305,-0.0098066499999988,9.80665,8.999999999999999e-08,0.0,0.0,0.0,8.999999999999999e-08,0.0,0.0,0.0,8.999999999999999e-08
1758482348673270900,4671,1758482348672921280,base_link,-0.0006759770357941288,-0.016546350542031976,0.0039938939214147475,-0.9998548945472697,1.0,0.0,0.0,0.0,1.0,0.0,0.0,0.0,1.0,0.000322951702401042,0.016639504581689835,0.0003035173285752514,1.2184696791468346e-07,0.0,0.0,0.0,1.2184696791468346e-07,0.0,0.0,0.0,1.2184696791468346e-07,0.14709975,-0.009806649999998798,9.81645665,8.999999999999999e-08,0.0,0.0,0.0,8.999999999999999e-08,0.0,0.0,0.0,8.999999999999999e-08
1758482348924043400,4672,1758482348923094848,base_link,-0.0008818021939480837,-0.016996862337174616,0.0039096103962467646,-0.9998475103945257,1.0,0.0,0.0,0.0,1.0,0.0,0.0,0.0,1.0,0.00048676319420337677,-0.007262928411364555,0.00028923177160322753,1.2184696791468346e-07,0.0,0.0,0.0,1.2184696791468346e-07,0.0,0.0,0.0,1.2184696791468346e-07,0.1176798,-0.009806649999998796,9.8262633,8.999999999999999e-08,0.0,0.0,0.0,8.999999999999999e-08,0.0,0.0,0.0,8.999999999999999e-08
1758482349169154800,4673,1758482349173211328,base_link,-0.001244183190751823,-0.015332258962181426,0.0038219586254324414,-0.9998743753470083,1.0,0.0,0.0,0.0,1.0,0.0,0.0,0.0,1.0,0.00385066750459373,-0.018992174416780472,0.000156681286171081,1.2184696791468346e-07,0.0,0.0,0.0,1.2184696791468346e-07,0.0,0.0,0.0,1.2184696791468346e-07,0.08825985,-0.009806649999998796,9.8262633,8.999999999999999e-08,0.0,0.0,0.0,8.999999999999999e-08,0.0,0.0,0.0,8.999999999999999e-08
1758482349420133900,4674,1758482349422394880,base_link,-0.0015773854568154086,-0.012634105848863637,0.003753105677298029,-0.9999118988302397,1.0,0.0,0.0,0.0,1.0,0.0,0.0,0.0,1.0,0.003939777612686157,-0.022978294640779495,-9.445520117878632e-05,1.2184696791468346e-07,0.0,0.0,0.0,1.2184696791468346e-07,0.0,0.0,0.0,1.2184696791468346e-07,0.0588399,-0.009806649999998798,9.81645665,8.999999999999999e-08,0.0,0.0,0.0,8.999999999999999e-08,0.0,0.0,0.0,8.999999999999999e-08
1758482349670843000,4675,1758482349672506240,base_link,-0.001847294294371151,-0.009555081527410131,0.0036838679488941923,-0.9999458570531354,1.0,0.0,0.0,0.0,1.0,0.0,0.0,0.0,1.0,0.001718801911920309,-0.02200438641011715,-0.0001429724507033798,1.2184696791468346e-07,0.0,0.0,0.0,1.2184696791468346e-07,0.0,0.0,0.0,1.2184696791468346e-07,0.0392266,-0.009806649999998798,9.81645665,8.999999999999999e-08,0.0,0.0,0.0,8.999999999999999e-08,0.0,0.0,0.0,8.999999999999999e-08
1758482349921854800,4676,1758482349922681856,base_link,-0.002031982157841234,-0.006680619546202648,0.00358796686625612,-0.9999691829575328,1.0,0.0,0.0,0.0,1.0,0.0,0.0,0.0,1.0,0.0034402802120894194,-0.022041257470846176,-0.00015641027130186287,1.2184696791468346e-07,0.0,0.0,0.0,1.2184696791468346e-07,0.0,0.0,0.0,1.2184696791468346e-07,0.0196133,-0.009806649999998798,9.81645665,8.999999999999999e-08,0.0,0.0,0.0,8.999999999999999e-08,0.0,0.0,0.0,8.999999999999999e-08
1758482350172451100,4677,1758482350172804992,base_link,-0.002206641714439629,-0.004324388730005595,0.003501763237953814,-0.9999820838638466,1.0,0.0,0.0,0.0,1.0,0.0,0.0,0.0,1.0,0.0023355113808065653,-0.018575631082057953,-0.00039769033901393186,1.2184696791468346e-07,0.0,0.0,0.0,1.2184696791468346e-07,0.0,0.0,0.0,1.2184696791468346e-07,0.00980665,-0.009806649999998798,9.81645665,8.999999999999999e-08,0.0,0.0,0.0,8.999999999999999e-08,0.0,0.0,0.0,8.999999999999999e-08
1758482350423577700,4678,1758482350422978560,base_link,-0.002214998306476103,-0.0024353630292720868,0.003422521669010914,-0.9999887245038532,1.0,0.0,0.0,0.0,1.0,0.0,0.0,0.0,1.0,-0.0008221946191042662,-0.014674052596092224,-0.0005669409874826651,1.2184696791468346e-07,0.0,0.0,0.0,1.2184696791468346e-07,0.0,0.0,0.0,1.2184696791468346e-07,0.0,1.202169221539125e-15,9.81645665,8.999999999999999e-08,0.0,0.0,0.0,8.999999999999999e-08,0.0,0.0,0.0,8.999999999999999e-08
1758482350674532800,4679,1758482350674096064,base_link,-0.0022163621786382023,-0.0010405210492899154,0.0033664105737455374,-0.9999913361297128,1.0,0.0,0.0,0.0,1.0,0.0,0.0,0.0,1.0,-0.00255035818554461,-0.010038006119430065,-0.0007514297030866134,1.2184696791468346e-07,0.0,0.0,0.0,1.2184696791468346e-07,0.0,0.0,0.0,1.2184696791468346e-07,0.0,1.2009682532858392e-15,9.80665,8.999999999999999e-08,0.0,0.0,0.0,8.999999999999999e-08,0.0,0.0,0.0,8.999999999999999e-08
1758482350925079900,4680,1758482350924271936,base_link,-0.002149080788845845,-9.122144535904916e-05,0.0033136416432263394,-0.9999921964242876,1.0,0.0,0.0,0.0,1.0,0.0,0.0,0.0,1.0,0.0013742696028202772,-0.007373020052909851,-0.0007798846345394841,1.2184696791468346e-07,0.0,0.0,0.0,1.2184696791468346e-07,0.0,0.0,0.0,1.2184696791468346e-07,0.0,1.2009682532858392e-15,9.80665,8.999999999999999e-08,0.0,0.0,0.0,8.999999999999999e-08,0.0,0.0,0.0,8.999999999999999e-08
1758482351170294400,4681,1758482351174384576,base_link,-0.0022676228756406173,0.018026146722220575,0.00329942622893742,-0.9998295003186306,1.0,0.0,0.0,0.0,1.0,0.0,0.0,0.0,1.0,0.007015295326709747,-0.4094341993331909,-0.0005287437234073376,1.2184696791468346e-07,0.0,0.0,0.0,1.2184696791468346e-07,0.0,0.0,0.0,1.2184696791468346e-07,0.0,1.202169221539125e-15,9.81645665,8.999999999999999e-08,0.0,0.0,0.0,8.999999999999999e-08,0.0,0.0,0.0,8.999999999999999e-08
1758482351421253500,4682,1758482351423561472,base_link,-0.0024375106946886104,0.07624355990030143,0.003278485783619949,-0.9970808541168107,1.0,0.0,0.0,0.0,1.0,0.0,0.0,0.0,1.0,-0.00042676040902733803,-0.1826726347208023,0.00045959558337929104,1.2184696791468346e-07,0.0,0.0,0.0,1.2184696791468346e-07,0.0,0.0,0.0,1.2184696791468346e-07,0.0,1.202169221539125e-15,9.81645665,8.999999999999999e-08,0.0,0.0,0.0,8.999999999999999e-08,0.0,0.0,0.0,8.999999999999999e-08
1758482351672269000,4683,1758482351673678208,base_link,-0.002181385260522068,0.05165251974326269,0.0030956882855565112,-0.9986579371719606,1.0,0.0,0.0,0.0,1.0,0.0,0.0,0.0,1.0,-0.00417268555611372,0.32251855731010437,-0.0001325579360127844,1.2184696791468346e-07,0.0,0.0,0.0,1.2184696791468346e-07,0.0,0.0,0.0,1.2184696791468346e-07,0.04903325,1.2153798723252691e-15,9.9243298,8.999999999999999e-08,0.0,0.0,0.0,8.999999999999999e-08,0.0,0.0,0.0,8.999999999999999e-08
1758482351922915400,4684,1758482351923847424,base_link,-0.0018126328849054503,0.01838645434194481,0.0030524652312518565,-0.9998246521839557,1.0,0.0,0.0,0.0,1.0,0.0,0.0,0.0,1.0,-0.002137997653335333,0.21049617230892181,-0.0014962367713451644,1.2184696791468346e-07,0.0,0.0,0.0,1.2184696791468346e-07,0.0,0.0,0.0,1.2184696791468346e-07,0.1372931,1.2081740628055542e-15,9.8654899,8.999999999999999e-08,0.0,0.0,0.0,8.999999999999999e-08,0.0,0.0,0.0,8.999999999999999e-08
1758482352174191900,4685,1758482352173966464,base_link,-0.0013975040259470162,-0.0012344006089051052,0.0030863975437764313,-0.9999934986727843,1.0,0.0,0.0,0.0,1.0,0.0,0.0,0.0,1.0,-0.001574713853187859,0.120109923183918,-0.0005852137692272811,1.2184696791468346e-07,0.0,0.0,0.0,1.2184696791468346e-07,0.0,0.0,0.0,1.2184696791468346e-07,0.16671305,1.2009682532858392e-15,9.80665,8.999999999999999e-08,0.0,0.0,0.0,8.999999999999999e-08,0.0,0.0,0.0,8.999999999999999e-08
1758482352424697000,4686,1758482352424145152,base_link,-0.0011770771242304106,-0.011976152018754873,0.0030386401487483275,-0.9999229735026163,1.0,0.0,0.0,0.0,1.0,0.0,0.0,0.0,1.0,0.0008119563572108746,0.058743417263031006,-0.00039561837911606556,1.2184696791468346e-07,0.0,0.0,0.0,1.2184696791468346e-07,0.0,0.0,0.0,1.2184696791468346e-07,0.16671305,1.2009682532858392e-15,9.80665,8.999999999999999e-08,0.0,0.0,0.0,8.999999999999999e-08,0.0,0.0,0.0,8.999999999999999e-08
1758482352675626100,4687,1758482352674259328,base_link,-0.0010102455646792082,-0.016604094684426668,0.003018554227736946,-0.9998570756733103,1.0,0.0,0.0,0.0,1.0,0.0,0.0,0.0,1.0,-0.0037392310332506895,0.01916295662522316,-0.00035915523767471547,1.2184696791468346e-07,0.0,0.0,0.0,1.2184696791468346e-07,0.0,0.0,0.0,1.2184696791468346e-07,0.14709975,1.202169221539125e-15,9.81645665,8.999999999999999e-08,0.0,0.0,0.0,8.999999999999999e-08,0.0,0.0,0.0,8.999999999999999e-08
1758482352926450500,4688,1758482352925439040,base_link,-0.0009759858038159147,-0.017197765742780716,0.002955202660688049,-0.9998472638770391,1.0,0.0,0.0,0.0,1.0,0.0,0.0,0.0,1.0,-0.000560833141207695,-0.006589017808437347,-1.6497913748025088e-05,1.2184696791468346e-07,0.0,0.0,0.0,1.2184696791468346e-07,0.0,0.0,0.0,1.2184696791468346e-07,0.1176798,1.2033701897924109e-15,9.8262633,8.999999999999999e-08,0.0,0.0,0.0,8.999999999999999e-08,0.0,0.0,0.0,8.999999999999999e-08
1758482353171424500,4689,1758482353175555776,base_link,-0.0010932569246075358,-0.01542856858531068,0.002880524582339116,-0.9998762256593741,1.0,0.0,0.0,0.0,1.0,0.0,0.0,0.0,1.0,0.002414936665445566,-0.019603680819272995,-0.00024682027287781,1.2184696791468346e-07,0.0,0.0,0.0,1.2184696791468346e-07,0.0,0.0,0.0,1.2184696791468346e-07,0.0784532,1.202169221539125e-15,9.81645665,8.999999999999999e-08,0.0,0.0,0.0,8.999999999999999e-08,0.0,0.0,0.0,8.999999999999999e-08
1758482353422507600,4690,1758482353424727808,base_link,-0.0011629891387296624,-0.012564312532486882,0.0028236114897290934,-0.9999164028682619,1.0,0.0,0.0,0.0,1.0,0.0,0.0,0.0,1.0,0.0018425451125949621,-0.02264045923948288,-0.00041008996777236185,1.2184696791468346e-07,0.0,0.0,0.0,1.2184696791468346e-07,0.0,0.0,0.0,1.2184696791468346e-07,0.0588399,1.202169221539125e-15,9.81645665,8.999999999999999e-08,0.0,0.0,0.0,8.999999999999999e-08,0.0,0.0,0.0,8.999999999999999e-08
1758482353673469700,4691,1758482353674848640,base_link,-0.0012338999326998684,-0.009419211658209036,0.002779135616634287,-0.9999510149741927,1.0,0.0,0.0,0.0,1.0,0.0,0.0,0.0,1.0,0.000788599718362093,-0.023860285058617592,-0.0005281546618789405,1.2184696791468346e-07,0.0,0.0,0.0,1.2184696791468346e-07,0.0,0.0,0.0,1.2184696791468346e-07,0.02941995,1.202169221539125e-15,9.81645665,8.999999999999999e-08,0.0,0.0,0.0,8.999999999999999e-08,0.0,0.0,0.0,8.999999999999999e-08
1758482353924222700,4692,1758482353925020928,base_link,-0.0012863277457784662,-0.006413936438268009,0.002724048857687233,-0.9999748928538743,1.0,0.0,0.0,0.0,1.0,0.0,0.0,0.0,1.0,0.0019018203020095825,-0.022758889943361282,-0.00046125566586851797,1.2184696791468346e-07,0.0,0.0,0.0,1.2184696791468346e-07,0.0,0.0,0.0,1.2184696791468346e-07,0.0196133,1.202169221539125e-15,9.81645665,8.999999999999999e-08,0.0,0.0,0.0,8.999999999999999e-08,0.0,0.0,0.0,8.999999999999999e-08
1758482354175141800,4693,1758482354175136384,base_link,-0.0014409047118476757,0.013616390391380594,0.0026901077022916673,-0.999902635773539,1.0,0.0,0.0,0.0,1.0,0.0,0.0,0.0,1.0,0.0069034527987241745,-0.4190726578235626,-0.0003900562878697597,1.2184696791468346e-07,0.0,0.0,0.0,1.2184696791468346e-07,0.0,0.0,0.0,1.2184696791468346e-07,0.00980665,1.202169221539125e-15,9.81645665,8.999999999999999e-08,0.0,0.0,0.0,8.999999999999999e-08,0.0,0.0,0.0,8.999999999999999e-08
1758482354426010800,4694,1758482354425318912,base_link,-0.001648868681612453,0.07325431241209775,0.0026369778365941164,-0.9973084444107505,1.0,0.0,0.0,0.0,1.0,0.0,0.0,0.0,1.0,0.0004123460967093706,-0.2066865861415863,0.00021310709416868834,1.2184696791468346e-07,0.0,0.0,0.0,1.2184696791468346e-07,0.0,0.0,0.0,1.2184696791468346e-07,0.0,1.202169221539125e-15,9.81645665,8.999999999999999e-08,0.0,0.0,0.0,8.999999999999999e-08,0.0,0.0,0.0,8.999999999999999e-08
1758482354676879600,4695,1758482354675428480,base_link,-0.0014266653627146727,0.05059416050022266,0.0025438947727504688,-0.9987150365087158,1.0,0.0,0.0,0.0,1.0,0.0,0.0,0.0,1.0,-0.0028889751993119717,0.3163016140460968,-0.0007592695765197664,1.2184696791468346e-07,0.0,0.0,0.0,1.2184696791468346e-07,0.0,0.0,0.0,1.2184696791468346e-07,0.04903325,1.2129779358186976e-15,9.9047165,8.999999999999999e-08,0.0,0.0,0.0,8.999999999999999e-08,0.0,0.0,0.0,8.999999999999999e-08
1758482354927697700,4696,1758482354926601536,base_link,-0.0013658968339198148,0.018070143960930825,0.002548578082019527,-0.9998325404650672,1.0,0.0,0.0,0.0,1.0,0.0,0.0,0.0,1.0,-0.0012360879918560386,0.20678450167179108,-0.0009863351006061092,1.2184696791468346e-07,0.0,0.0,0.0,1.2184696791468346e-07,0.0,0.0,0.0,1.2184696791468346e-07,0.1372931,1.2081740628055542e-15,9.8654899,8.999999999999999e-08,0.0,0.0,0.0,8.999999999999999e-08,0.0,0.0,0.0,8.999999999999999e-08
1758482355172654100,4697,1758482355176723392,base_link,-0.001057674903039171,-0.0011645483061811877,0.002560193592973159,-0.9999954852697128,1.0,0.0,0.0,0.0,1.0,0.0,0.0,0.0,1.0,-0.0009600585326552391,0.11690906435251236,-0.00029302178882063866,1.2184696791468346e-07,0.0,0.0,0.0,1.2184696791468346e-07,0.0,0.0,0.0,1.2184696791468346e-07,0.16671305,1.1997672850325534e-15,9.79684335,8.999999999999999e-08,0.0,0.0,0.0,8.999999999999999e-08,0.0,0.0,0.0,8.999999999999999e-08
1758482355423474000,4698,1758482355426891328,base_link,-0.0009721476350432332,-0.01176676115529535,0.0025009865716547055,-0.9999271690113527,1.0,0.0,0.0,0.0,1.0,0.0,0.0,0.0,1.0,-0.00034109875559806824,0.058020059019327164,-0.0001238505356013846,1.2184696791468346e-07,0.0,0.0,0.0,1.2184696791468346e-07,0.0,0.0,0.0,1.2184696791468346e-07,0.16671305,1.2009682532858392e-15,9.80665,8.999999999999999e-08,0.0,0.0,0.0,8.999999999999999e-08,0.0,0.0,0.0,8.999999999999999e-08
1758482355674719500,4699,1758482355676007808,base_link,-0.0009177304102982751,-0.0164802162477719,0.002486599483474349,-0.9998606788279703,1.0,0.0,0.0,0.0,1.0,0.0,0.0,0.0,1.0,0.00011526071466505527,0.02214626595377922,-0.00022480078041553768,1.2184696791468346e-07,0.0,0.0,0.0,1.2184696791468346e-07,0.0,0.0,0.0,1.2184696791468346e-07,0.14709975,1.202169221539125e-15,9.81645665,8.999999999999999e-08,0.0,0.0,0.0,8.999999999999999e-08,0.0,0.0,0.0,8.999999999999999e-08
1758482355925481000,4700,1758482355926186752,base_link,-0.0008995304598908306,-0.017223790177774888,0.002442251755691182,-0.9998482721409412,1.0,0.0,0.0,0.0,1.0,0.0,0.0,0.0,1.0,0.002223712857812643,-0.0030929737258702517,-5.489471368491612e-05,1.2184696791468346e-07,0.0,0.0,0.0,1.2184696791468346e-07,0.0,0.0,0.0,1.2184696791468346e-07,0.1176798,1.202169221539125e-15,9.81645665,8.999999999999999e-08,0.0,0.0,0.0,8.999999999999999e-08,0.0,0.0,0.0,8.999999999999999e-08
1758482356176129800,4701,1758482356176297856,base_link,-0.0009933287805403228,-0.015614383319126457,0.0023949139793255072,-0.999874726512541,1.0,0.0,0.0,0.0,1.0,0.0,0.0,0.0,1.0,0.0039737289771437645,-0.018977513536810875,0.00014557247050106759,1.2184696791468346e-07,0.0,0.0,0.0,1.2184696791468346e-07,0.0,0.0,0.0,1.2184696791468346e-07,0.08825985,1.202169221539125e-15,9.81645665,8.999999999999999e-08,0.0,0.0,0.0,8.999999999999999e-08,0.0,0.0,0.0,8.999999999999999e-08
1758482356427119800,4702,1758482356426473728,base_link,-0.0010896882263730285,-0.012826395788707916,0.00233985362388378,-0.999914406954745,1.0,0.0,0.0,0.0,1.0,0.0,0.0,0.0,1.0,0.0012439093552529812,-0.02473151683807373,-0.0001902158837765425,1.2184696791468346e-07,0.0,0.0,0.0,1.2184696791468346e-07,0.0,0.0,0.0,1.2184696791468346e-07,0.0588399,1.202169221539125e-15,9.81645665,8.999999999999999e-08,0.0,0.0,0.0,8.999999999999999e-08,0.0,0.0,0.0,8.999999999999999e-08
1758482356678200600,4703,1758482356676597120,base_link,-0.0011549455108922396,-0.009727841860895477,0.002298677629178347,-0.9999493743558988,1.0,0.0,0.0,0.0,1.0,0.0,0.0,0.0,1.0,-0.0023470602463930845,-0.024518633261322975,-0.00020057684741913971,1.2184696791468346e-07,0.0,0.0,0.0,1.2184696791468346e-07,0.0,0.0,0.0,1.2184696791468346e-07,0.02941995,1.202169221539125e-15,9.81645665,8.999999999999999e-08,0.0,0.0,0.0,8.999999999999999e-08,0.0,0.0,0.0,8.999999999999999e-08
1758482356928777000,4704,1758482356927765056,base_link,-0.0012026677201959772,-0.006767619067112559,0.002245863534789227,-0.9999738541679477,1.0,0.0,0.0,0.0,1.0,0.0,0.0,0.0,1.0,0.002901331754401326,-0.02456871047616005,-0.000275858212262389,1.2184696791468346e-07,0.0,0.0,0.0,1.2184696791468346e-07,0.0,0.0,0.0,1.2184696791468346e-07,0.0196133,1.202169221539125e-15,9.81645665,8.999999999999999e-08,0.0,0.0,0.0,8.999999999999999e-08,0.0,0.0,0.0,8.999999999999999e-08
1758482357173963000,4705,1758482357177882816,base_link,-0.0013244512824802913,0.01371693683758378,0.0022235468591798044,-0.9999025689095709,1.0,0.0,0.0,0.0,1.0,0.0,0.0,0.0,1.0,0.005447039380669594,-0.42524680495262146,-0.0002651370596140102,1.2184696791468346e-07,0.0,0.0,0.0,1.2184696791468346e-07,0.0,0.0,0.0,1.2184696791468346e-07,0.00980665,1.202169221539125e-15,9.81645665,8.999999999999999e-08,0.0,0.0,0.0,8.999999999999999e-08,0.0,0.0,0.0,8.999999999999999e-08
1758482357424872800,4706,1758482357428060480,base_link,-0.0015149582635397923,0.07303648352468683,0.002202114888804234,-0.9973256878602015,1.0,0.0,0.0,0.0,1.0,0.0,0.0,0.0,1.0,-6.91036693751812e-05,-0.19359484314918518,0.0002843181136995791,1.2184696791468346e-07,0.0,0.0,0.0,1.2184696791468346e-07,0.0,0.0,0.0,1.2184696791468346e-07,0.0,1.202169221539125e-15,9.81645665,8.999999999999999e-08,0.0,0.0,0.0,8.999999999999999e-08,0.0,0.0,0.0,8.999999999999999e-08
1758482357675572900,4707,1758482357677173632,base_link,-0.0012866182938552676,0.04969230672561746,0.0021301746507382843,-0.9987614738372774,1.0,0.0,0.0,0.0,1.0,0.0,0.0,0.0,1.0,-0.0023168546613305807,0.3150370419025421,-0.00034273439086977527,1.2184696791468346e-07,0.0,0.0,0.0,1.2184696791468346e-07,0.0,0.0,0.0,1.2184696791468346e-07,0.04903325,1.2129779358186976e-15,9.9047165,8.999999999999999e-08,0.0,0.0,0.0,8.999999999999999e-08,0.0,0.0,0.0,8.999999999999999e-08
1758482357926174900,4708,1758482357927352064,base_link,-0.0009887927430176266,0.01725217350910433,0.0021439743758835403,-0.9998483825920803,1.0,0.0,0.0,0.0,1.0,0.0,0.0,0.0,1.0,-0.004385276697576046,0.2056104689836502,-0.00035341922193768156,1.2184696791468346e-07,0.0,0.0,0.0,1.2184696791468346e-07,0.0,0.0,0.0,1.2184696791468346e-07,0.1372931,1.2081740628055542e-15,9.8654899,8.999999999999999e-08,0.0,0.0,0.0,8.999999999999999e-08,0.0,0.0,0.0,8.999999999999999e-08
1758482358177457200,4709,1758482358177468288,base_link,-0.0005030559753185668,-0.0018696826277516895,0.00211655725965898,-0.9999958856949981,1.0,0.0,0.0,0.0,1.0,0.0,0.0,0.0,1.0,-0.00295808888040483,0.11538652330636978,0.0004975972697138645,1.2184696791468346e-07,0.0,0.0,0.0,1.2184696791468346e-07,0.0,0.0,0.0,1.2184696791468346e-07,0.16671305,1.2009682532858392e-15,9.80665,8.999999999999999e-08,0.0,0.0,0.0,8.999999999999999e-08,0.0,0.0,0.0,8.999999999999999e-08
1758482358428049300,4710,1758482358427638272,base_link,-0.0002373525651842276,-0.012148288850089055,0.0020608947647306466,-0.9999240548434382,1.0,0.0,0.0,0.0,1.0,0.0,0.0,0.0,1.0,0.0004593960475176573,0.059353917837142944,-0.00011191540397704374,1.2184696791468346e-07,0.0,0.0,0.0,1.2184696791468346e-07,0.0,0.0,0.0,1.2184696791468346e-07,0.16671305,1.2009682532858392e-15,9.80665,8.999999999999999e-08,0.0,0.0,0.0,8.999999999999999e-08,0.0,0.0,0.0,8.999999999999999e-08
1758482358679238200,4711,1758482358677757312,base_link,-0.00015875242449851033,-0.016538238439578877,0.002050179000535556,-0.9998611194726241,1.0,0.0,0.0,0.0,1.0,0.0,0.0,0.0,1.0,-0.0011078201932832599,0.018587330356240273,-9.121024049818743e-05,1.2184696791468346e-07,0.0,0.0,0.0,1.2184696791468346e-07,0.0,0.0,0.0,1.2184696791468346e-07,0.14709975,1.202169221539125e-15,9.81645665,8.999999999999999e-08,0.0,0.0,0.0,8.999999999999999e-08,0.0,0.0,0.0,8.999999999999999e-08
1758482358924152900,4712,1758482358927927808,base_link,-0.00010956783931882886,-0.01707322016916554,0.00200075281501949,-0.9998522341506854,1.0,0.0,0.0,0.0,1.0,0.0,0.0,0.0,1.0,-0.0008797039045020938,-0.006869051605463028,0.00015043537132442082,1.2184696791468346e-07,0.0,0.0,0.0,1.2184696791468346e-07,0.0,0.0,0.0,1.2184696791468346e-07,0.10787315,1.2033701897924109e-15,9.8262633,8.999999999999999e-08,0.0,0.0,0.0,8.999999999999999e-08,0.0,0.0,0.0,8.999999999999999e-08
1758482359174979900,4713,1758482359179041472,base_link,-0.00016580727237090442,-0.015339224172453004,0.001941295662833963,-0.999880448894209,1.0,0.0,0.0,0.0,1.0,0.0,0.0,0.0,1.0,0.0005960306152701378,-0.021924421191215515,-0.00012014550156891078,1.2184696791468346e-07,0.0,0.0,0.0,1.2184696791468346e-07,0.0,0.0,0.0,1.2184696791468346e-07,0.0784532,1.2033701897924109e-15,9.8262633,8.999999999999999e-08,0.0,0.0,0.0,8.999999999999999e-08,0.0,0.0,0.0,8.999999999999999e-08
1758482359426035800,4714,1758482359429221696,base_link,-0.00033190490853664826,-0.012541096514105319,0.0019026203183832848,-0.9999194921458825,1.0,0.0,0.0,0.0,1.0,0.0,0.0,0.0,1.0,0.0009365333244204521,-0.025131139904260635,-0.0001924943644553392,1.2184696791468346e-07,0.0,0.0,0.0,1.2184696791468346e-07,0.0,0.0,0.0,1.2184696791468346e-07,0.04903325,1.202169221539125e-15,9.81645665,8.999999999999999e-08,0.0,0.0,0.0,8.999999999999999e-08,0.0,0.0,0.0,8.999999999999999e-08
1758482359676770300,4715,1758482359678329984,base_link,-0.0005376026590741644,-0.009525621198940275,0.0018702752915317749,-0.9999527366803338,1.0,0.0,0.0,0.0,1.0,0.0,0.0,0.0,1.0,0.0020732800476253033,-0.023127997294068336,-0.0002827085554599734,1.2184696791468346e-07,0.0,0.0,0.0,1.2184696791468346e-07,0.0,0.0,0.0,1.2184696791468346e-07,0.02941995,1.202169221539125e-15,9.81645665,8.999999999999999e-08,0.0,0.0,0.0,8.999999999999999e-08,0.0,0.0,0.0,8.999999999999999e-08
1758482359927654400,4716,1758482359928501760,base_link,-0.0006723049028688367,-0.006643376626500082,0.0018350635446851,-0.9999760227599976,1.0,0.0,0.0,0.0,1.0,0.0,0.0,0.0,1.0,0.00363757717423141,-0.022446274757385254,-0.00031253346242010317,1.2184696791468346e-07,0.0,0.0,0.0,1.2184696791468346e-07,0.0,0.0,0.0,1.2184696791468346e-07,0.0196133,1.202169221539125e-15,9.81645665,8.999999999999999e-08,0.0,0.0,0.0,8.999999999999999e-08,0.0,0.0,0.0,8.999999999999999e-08
1758482360178479900,4717,1758482360178622592,base_link,-0.0008494909575885726,0.013465151463231337,0.0018118689048132195,-0.9999073383030335,1.0,0.0,0.0,0.0,1.0,0.0,0.0,0.0,1.0,0.004822813905775547,-0.4169017970561981,-0.00031201518140728135,1.2184696791468346e-07,0.0,0.0,0.0,1.2184696791468346e-07,0.0,0.0,0.0,1.2184696791468346e-07,0.0,1.202169221539125e-15,9.81645665,8.999999999999999e-08,0.0,0.0,0.0,8.999999999999999e-08,0.0,0.0,0.0,8.999999999999999e-08
1758482360429327800,4718,1758482360428787712,base_link,-0.0011276700759643584,0.07299634177424155,0.001748182290086835,-0.9973300388068428,1.0,0.0,0.0,0.0,1.0,0.0,0.0,0.0,1.0,0.0020537611562758684,-0.2049180418252945,0.00013604061678054458,1.2184696791468346e-07,0.0,0.0,0.0,1.2184696791468346e-07,0.0,0.0,0.0,1.2184696791468346e-07,0.0,1.202169221539125e-15,9.81645665,8.999999999999999e-08,0.0,0.0,0.0,8.999999999999999e-08,0.0,0.0,0.0,8.999999999999999e-08
1758482360680467600,4719,1758482360678902912,base_link,-0.001045419338403125,0.05032171814244743,0.0016847485443108909,-0.9987310916377548,1.0,0.0,0.0,0.0,1.0,0.0,0.0,0.0,1.0,-0.001468936912715435,0.3165372610092163,-0.0006601202767342717,1.2184696791468346e-07,0.0,0.0,0.0,1.2184696791468346e-07,0.0,0.0,0.0,1.2184696791468346e-07,0.04903325,1.2129779358186976e-15,9.9047165,8.999999999999999e-08,0.0,0.0,0.0,8.999999999999999e-08,0.0,0.0,0.0,8.999999999999999e-08
1758482360925320700,4720,1758482360929076224,base_link,-0.0010922939638062178,0.017830323416181966,0.0017417351928606395,-0.9998389134352039,1.0,0.0,0.0,0.0,1.0,0.0,0.0,0.0,1.0,-0.001546899788081646,0.20220287144184113,-0.0006132621783763417,1.2184696791468346e-07,0.0,0.0,0.0,1.2184696791468346e-07,0.0,0.0,0.0,1.2184696791468346e-07,0.1372931,1.2093750310588401e-15,9.87529655,8.999999999999999e-08,0.0,0.0,0.0,8.999999999999999e-08,0.0,0.0,0.0,8.999999999999999e-08
1758482361176552800,4721,1758482361180186304,base_link,-0.0008698100782698149,-0.0013608418406209969,0.0017191256268294652,-0.9999972180696264,1.0,0.0,0.0,0.0,1.0,0.0,0.0,0.0,1.0,0.00028431322425603867,0.11405951529741287,0.00021895277313886677,1.2184696791468346e-07,0.0,0.0,0.0,1.2184696791468346e-07,0.0,0.0,0.0,1.2184696791468346e-07,0.16671305,1.2009682532858392e-15,9.80665,8.999999999999999e-08,0.0,0.0,0.0,8.999999999999999e-08,0.0,0.0,0.0,8.999999999999999e-08
1758482361427334900,4722,1758482361430360896,base_link,-0.000711018848202799,-0.011952453759557495,0.001679059392706072,-0.9999269043589529,1.0,0.0,0.0,0.0,1.0,0.0,0.0,0.0,1.0,-0.0012248062994331121,0.059637367725372314,-0.00020527350716293587,1.2184696791468346e-07,0.0,0.0,0.0,1.2184696791468346e-07,0.0,0.0,0.0,1.2184696791468346e-07,0.16671305,1.202169221539125e-15,9.81645665,8.999999999999999e-08,0.0,0.0,0.0,8.999999999999999e-08,0.0,0.0,0.0,8.999999999999999e-08
1758482361678283800,4723,1758482361680484288,base_link,-0.0005809313092589337,-0.016663477778249593,0.0016743034571290994,-0.9998595840092155,1.0,0.0,0.0,0.0,1.0,0.0,0.0,0.0,1.0,-0.003689937759190798,0.0223527904599905,-0.00022701639682054793,1.2184696791468346e-07,0.0,0.0,0.0,1.2184696791468346e-07,0.0,0.0,0.0,1.2184696791468346e-07,0.14709975,1.202169221539125e-15,9.81645665,8.999999999999999e-08,0.0,0.0,0.0,8.999999999999999e-08,0.0,0.0,0.0,8.999999999999999e-08
1758482361928900000,4724,1758482361929650688,base_link,-0.0005532514367128505,-0.017333048621294988,0.001628995950846367,-0.9998482913475083,1.0,0.0,0.0,0.0,1.0,0.0,0.0,0.0,1.0,-0.00035410537384450436,-0.004884700290858746,0.00014885561540722907,1.2184696791468346e-07,0.0,0.0,0.0,1.2184696791468346e-07,0.0,0.0,0.0,1.2184696791468346e-07,0.1176798,1.202169221539125e-15,9.81645665,8.999999999999999e-08,0.0,0.0,0.0,8.999999999999999e-08,0.0,0.0,0.0,8.999999999999999e-08
1758482362179795500,4725,1758482362179768192,base_link,-0.000601122851130988,-0.015688094516990544,0.001569505285130112,-0.9998755217500346,1.0,0.0,0.0,0.0,1.0,0.0,0.0,0.0,1.0,0.0027014436200261116,-0.018560143187642097,-0.00013802852481603395,1.2184696791468346e-07,0.0,0.0,0.0,1.2184696791468346e-07,0.0,0.0,0.0,1.2184696791468346e-07,0.0784532,1.2033701897924109e-15,9.8262633,8.999999999999999e-08,0.0,0.0,0.0,8.999999999999999e-08,0.0,0.0,0.0,8.999999999999999e-08
1758482362430806100,4726,1758482362429944576,base_link,-0.0007880624775913513,-0.012819687429397302,0.0015429575048950808,-0.9999163234260564,1.0,0.0,0.0,0.0,1.0,0.0,0.0,0.0,1.0,0.0034721374977380037,-0.02453496865928173,-0.000392744317650792,1.2184696791468346e-07,0.0,0.0,0.0,1.2184696791468346e-07,0.0,0.0,0.0,1.2184696791468346e-07,0.0588399,1.202169221539125e-15,9.81645665,8.999999999999999e-08,0.0,0.0,0.0,8.999999999999999e-08,0.0,0.0,0.0,8.999999999999999e-08
1758482362681433300,4727,1758482362680056704,base_link,-0.0011020657473593634,-0.009650692329410307,0.0015246431807616194,-0.9999516613575994,1.0,0.0,0.0,0.0,1.0,0.0,0.0,0.0,1.0,0.0010000329930335283,-0.02542385458946228,-0.00045617762953042675,1.2184696791468346e-07,0.0,0.0,0.0,1.2184696791468346e-07,0.0,0.0,0.0,1.2184696791468346e-07,0.02941995,1.202169221539125e-15,9.81645665,8.999999999999999e-08,0.0,0.0,0.0,8.999999999999999e-08,0.0,0.0,0.0,8.999999999999999e-08
1758482362926659500,4728,1758482362930224128,base_link,-0.0013201160867439242,-0.0067573107559970634,0.0014894807678251794,-0.9999751884381465,1.0,0.0,0.0,0.0,1.0,0.0,0.0,0.0,1.0,0.0005435915663838387,-0.023391732946038246,-0.000279348809272048,1.2184696791468346e-07,0.0,0.0,0.0,1.2184696791468346e-07,0.0,0.0,0.0,1.2184696791468346e-07,0.0196133,1.202169221539125e-15,9.81645665,8.999999999999999e-08,0.0,0.0,0.0,8.999999999999999e-08,0.0,0.0,0.0,8.999999999999999e-08
1758482363177918000,4729,1758482363181339328,base_link,-0.0014490920641485427,0.01410191473249143,0.0014713430769348066,-0.9998984304831253,1.0,0.0,0.0,0.0,1.0,0.0,0.0,0.0,1.0,0.001529067987576127,-0.42582669854164124,-0.00027234409935767204,1.2184696791468346e-07,0.0,0.0,0.0,1.2184696791468346e-07,0.0,0.0,0.0,1.2184696791468346e-07,0.00980665,1.202169221539125e-15,9.81645665,8.999999999999999e-08,0.0,0.0,0.0,8.999999999999999e-08,0.0,0.0,0.0,8.999999999999999e-08
1758482363428211100,4730,1758482363431508032,base_link,-0.0015433290651676672,0.07304565278311242,0.0014374040111762066,-0.9973263681536721,1.0,0.0,0.0,0.0,1.0,0.0,0.0,0.0,1.0,0.0009900645818561316,-0.19115616381168365,0.0002895153593272205,1.2184696791468346e-07,0.0,0.0,0.0,1.2184696791468346e-07,0.0,0.0,0.0,1.2184696791468346e-07,0.0,1.202169221539125e-15,9.81645665,8.999999999999999e-08,0.0,0.0,0.0,8.999999999999999e-08,0.0,0.0,0.0,8.999999999999999e-08
1758482363679459400,4731,1758482363681626816,base_link,-0.001447350651484739,0.049454436588176845,0.0013482708826960152,-0.9987744220010164,1.0,0.0,0.0,0.0,1.0,0.0,0.0,0.0,1.0,-0.004449807107448578,0.31579461693763733,-0.0005262801423669248,1.2184696791468346e-07,0.0,0.0,0.0,1.2184696791468346e-07,0.0,0.0,0.0,1.2184696791468346e-07,0.04903325,1.2129779358186976e-15,9.9047165,8.999999999999999e-08,0.0,0.0,0.0,8.999999999999999e-08,0.0,0.0,0.0,8.999999999999999e-08
1758482363930052200,4732,1758482363930797056,base_link,-0.0010915705072421767,0.01703237326417182,0.0013893319342450094,-0.9998533774967178,1.0,0.0,0.0,0.0,1.0,0.0,0.0,0.0,1.0,-0.005059001035988331,0.20423300564289093,-0.0008307355456054461,1.2184696791468346e-07,0.0,0.0,0.0,1.2184696791468346e-07,0.0,0.0,0.0,1.2184696791468346e-07,0.1372931,1.2081740628055542e-15,9.8654899,8.999999999999999e-08,0.0,0.0,0.0,8.999999999999999e-08,0.0,0.0,0.0,8.999999999999999e-08
1758482364181015000,4733,1758482364180910208,base_link,-0.0007680461370271023,-0.0020803515741187445,0.0013953459784890596,-0.9999965676201392,1.0,0.0,0.0,0.0,1.0,0.0,0.0,0.0,1.0,0.000300784595310688,0.11546774953603745,-6.964430212988689e-06,1.2184696791468346e-07,0.0,0.0,0.0,1.2184696791468346e-07,0.0,0.0,0.0,1.2184696791468346e-07,0.16671305,1.2009682532858392e-15,9.80665,8.999999999999999e-08,0.0,0.0,0.0,8.999999999999999e-08,0.0,0.0,0.0,8.999999999999999e-08
1758482364431865500,4734,1758482364431081472,base_link,-0.0005854004727201036,-0.012380780775226276,0.0013742264530223751,-0.9999222395143225,1.0,0.0,0.0,0.0,1.0,0.0,0.0,0.0,1.0,-0.00019462662748992443,0.0586736761033535,-0.000299369450658567,1.2184696791468346e-07,0.0,0.0,0.0,1.2184696791468346e-07,0.0,0.0,0.0,1.2184696791468346e-07,0.16671305,1.202169221539125e-15,9.81645665,8.999999999999999e-08,0.0,0.0,0.0,8.999999999999999e-08,0.0,0.0,0.0,8.999999999999999e-08
1758482364682566200,4735,1758482364681191808,base_link,-0.0005148756603755225,-0.01674204765189611,0.0013600865028313691,-0.9998587844831792,1.0,0.0,0.0,0.0,1.0,0.0,0.0,0.0,1.0,-0.0021694155875593424,0.021255578845739365,-0.0002362700179219272,1.2184696791468346e-07,0.0,0.0,0.0,1.2184696791468346e-07,0.0,0.0,0.0,1.2184696791468346e-07,0.1372931,1.202169221539125e-15,9.81645665,8.999999999999999e-08,0.0,0.0,0.0,8.999999999999999e-08,0.0,0.0,0.0,8.999999999999999e-08
1758482364928185500,4736,1758482364931362560,base_link,-0.0005447926141744561,-0.01715631146263872,0.0013150286435364411,-0.9998518064581726,1.0,0.0,0.0,0.0,1.0,0.0,0.0,0.0,1.0,0.00084670539945364,-0.007864825427532196,-6.183050572871199e-06,1.2184696791468346e-07,0.0,0.0,0.0,1.2184696791468346e-07,0.0,0.0,0.0,1.2184696791468346e-07,0.10787315,1.202169221539125e-15,9.81645665,8.999999999999999e-08,0.0,0.0,0.0,8.999999999999999e-08,0.0,0.0,0.0,8.999999999999999e-08
1758482365178826700,4737,1758482365181483648,base_link,-0.0006406020168189447,-0.015387558691066228,0.0012689981602297387,-0.9998805940262341,1.0,0.0,0.0,0.0,1.0,0.0,0.0,0.0,1.0,0.002137529430910945,-0.021189775317907333,-0.00025960919447242953,1.2184696791468346e-07,0.0,0.0,0.0,1.2184696791468346e-07,0.0,0.0,0.0,1.2184696791468346e-07,0.0784532,1.2033701897924109e-15,9.8262633,8.999999999999999e-08,0.0,0.0,0.0,8.999999999999999e-08,0.0,0.0,0.0,8.999999999999999e-08
1758482365429769500,4738,1758482365432655680,base_link,-0.0007863514616029726,-0.012639020637616221,0.0012459250777651079,-0.9999190389623559,1.0,0.0,0.0,0.0,1.0,0.0,0.0,0.0,1.0,0.0033120084553956985,-0.023946385830640793,-0.0003409232012927503,1.2184696791468346e-07,0.0,0.0,0.0,1.2184696791468346e-07,0.0,0.0,0.0,1.2184696791468346e-07,0.0588399,1.202169221539125e-15,9.81645665,8.999999999999999e-08,0.0,0.0,0.0,8.999999999999999e-08,0.0,0.0,0.0,8.999999999999999e-08
1758482365680714400,4739,1758482365682771136,base_link,-0.0009054096758560618,-0.00948222243823554,0.0012242592677875746,-0.9999538833767265,1.0,0.0,0.0,0.0,1.0,0.0,0.0,0.0,1.0,0.002267142292112112,-0.025577880442142487,-0.0004048345144838063,1.2184696791468346e-07,0.0,0.0,0.0,1.2184696791468346e-07,0.0,0.0,0.0,1.2184696791468346e-07,0.02941995,1.202169221539125e-15,9.81645665,8.999999999999999e-08,0.0,0.0,0.0,8.999999999999999e-08,0.0,0.0,0.0,8.999999999999999e-08
1758482365931324200,4740,1758482365931951616,base_link,-0.0009703936018537347,-0.006469122752602363,0.0011890797645521807,-0.9999778971939244,1.0,0.0,0.0,0.0,1.0,0.0,0.0,0.0,1.0,0.0003017599228769541,-0.023747120052576065,-0.00042869686149060433,1.2184696791468346e-07,0.0,0.0,0.0,1.2184696791468346e-07,0.0,0.0,0.0,1.2184696791468346e-07,0.0196133,1.202169221539125e-15,9.81645665,8.999999999999999e-08,0.0,0.0,0.0,8.999999999999999e-08,0.0,0.0,0.0,8.999999999999999e-08
1758482366182331600,4741,1758482366182060928,base_link,-0.0010490219784429484,0.014659009775861657,0.0011733127499133364,-0.9998913122547226,1.0,0.0,0.0,0.0,1.0,0.0,0.0,0.0,1.0,0.0016727868933230639,-0.42636212706565857,-0.0004210278857498839,1.2184696791468346e-07,0.0,0.0,0.0,1.2184696791468346e-07,0.0,0.0,0.0,1.2184696791468346e-07,0.0,1.202169221539125e-15,9.81645665,8.999999999999999e-08,0.0,0.0,0.0,8.999999999999999e-08,0.0,0.0,0.0,8.999999999999999e-08
1758482366433070100,4742,1758482366432233728,base_link,-0.0010856960089024883,0.07335297324237894,0.0011561830607732017,-0.9973047808074565,1.0,0.0,0.0,0.0,1.0,0.0,0.0,0.0,1.0,-0.0013783096801489592,-0.18371716141700745,-8.146045729495438e-06,1.2184696791468346e-07,0.0,0.0,0.0,1.2184696791468346e-07,0.0,0.0,0.0,1.2184696791468346e-07,0.0,1.202169221539125e-15,9.81645665,8.999999999999999e-08,0.0,0.0,0.0,8.999999999999999e-08,0.0,0.0,0.0,8.999999999999999e-08
1758482366683590400,4743,1758482366682352512,base_link,-0.0007235732800520158,0.04966524539572106,0.0011350912598366322,-0.9987650131083501,1.0,0.0,0.0,0.0,1.0,0.0,0.0,0.0,1.0,-0.006213666871190071,0.3157389163970947,-0.00042315432801846555,1.2184696791468346e-07,0.0,0.0,0.0,1.2184696791468346e-07,0.0,0.0,0.0,1.2184696791468346e-07,0.04903325,1.2129779358186976e-15,9.9047165,8.999999999999999e-08,0.0,0.0,0.0,8.999999999999999e-08,0.0,0.0,0.0,8.999999999999999e-08
1758482366929039100,4744,1758482366932517632,base_link,-0.00038084557463438244,0.01721150083309475,0.0011424305406372859,-0.9998511459453254,1.0,0.0,0.0,0.0,1.0,0.0,0.0,0.0,1.0,-0.0035033412277698517,0.20494729280471802,-0.000468681799247886,1.2184696791468346e-07,0.0,0.0,0.0,1.2184696791468346e-07,0.0,0.0,0.0,1.2184696791468346e-07,0.1372931,1.2081740628055542e-15,9.8654899,8.999999999999999e-08,0.0,0.0,0.0,8.999999999999999e-08,0.0,0.0,0.0,8.999999999999999e-08
1758482367180371000,4745,1758482367182633856,base_link,-9.506838486994748e-05,-0.001922337144903682,0.0011028246021496655,-0.9999975396768735,1.0,0.0,0.0,0.0,1.0,0.0,0.0,0.0,1.0,-2.3943837732076645e-05,0.1129676103591919,5.922280251978444e-05,1.2184696791468346e-07,0.0,0.0,0.0,1.2184696791468346e-07,0.0,0.0,0.0,1.2184696791468346e-07,0.16671305,1.2009682532858392e-15,9.80665,8.999999999999999e-08,0.0,0.0,0.0,8.999999999999999e-08,0.0,0.0,0.0,8.999999999999999e-08
1758482367430663400,4746,1758482367433807680,base_link,-1.4597491036594428e-05,-0.012261356998272176,0.0010892298577500619,-0.9999242333746048,1.0,0.0,0.0,0.0,1.0,0.0,0.0,0.0,1.0,0.0025004767812788486,0.05620309337973595,-0.0005382131785154411,1.2184696791468346e-07,0.0,0.0,0.0,1.2184696791468346e-07,0.0,0.0,0.0,1.2184696791468346e-07,0.16671305,1.2009682532858392e-15,9.80665,8.999999999999999e-08,0.0,0.0,0.0,8.999999999999999e-08,0.0,0.0,0.0,8.999999999999999e-08
1758482367681428800,4747,1758482367683918784,base_link,7.130515593987852e-05,-0.016776190410383723,0.0010909170901319254,-0.9998586721386135,1.0,0.0,0.0,0.0,1.0,0.0,0.0,0.0,1.0,-0.0023205047473311424,0.021238621324300766,-0.0003822965081781175,1.2184696791468346e-07,0.0,0.0,0.0,1.2184696791468346e-07,0.0,0.0,0.0,1.2184696791468346e-07,0.14709975,1.202169221539125e-15,9.81645665,8.999999999999999e-08,0.0,0.0,0.0,8.999999999999999e-08,0.0,0.0,0.0,8.999999999999999e-08
1758482367932379800,4748,1758482367934085184,base_link,9.269783450134275e-05,-0.01736545932161781,0.00105251956690544,-0.9998486507628153,1.0,0.0,0.0,0.0,1.0,0.0,0.0,0.0,1.0,-0.00031509436666965485,-0.005843161605298519,-0.00016386271454393793,1.2184696791468346e-07,0.0,0.0,0.0,1.2184696791468346e-07,0.0,0.0,0.0,1.2184696791468346e-07,0.1176798,1.202169221539125e-15,9.81645665,8.999999999999999e-08,0.0,0.0,0.0,8.999999999999999e-08,0.0,0.0,0.0,8.999999999999999e-08
1758482368183539200,4749,1758482368183199872,base_link,-5.43398018086715e-05,-0.01564289640446699,0.001020392492149357,-0.9998771202694995,1.0,0.0,0.0,0.0,1.0,0.0,0.0,0.0,1.0,0.0006663277745246887,-0.021810151636600494,-0.0004212874919176075,1.2184696791468346e-07,0.0,0.0,0.0,1.2184696791468346e-07,0.0,0.0,0.0,1.2184696791468346e-07,0.0784532,1.2033701897924109e-15,9.8262633,8.999999999999999e-08,0.0,0.0,0.0,8.999999999999999e-08,0.0,0.0,0.0,8.999999999999999e-08
1758482368434195800,4750,1758482368433372672,base_link,-0.00025810387759048675,-0.012819014923022926,0.0009986615849856264,-0.9999173010373559,1.0,0.0,0.0,0.0,1.0,0.0,0.0,0.0,1.0,0.0009014538954943419,-0.026194555684924126,-0.0004870896227657763,1.2184696791468346e-07,0.0,0.0,0.0,1.2184696791468346e-07,0.0,0.0,0.0,1.2184696791468346e-07,0.04903325,1.202169221539125e-15,9.81645665,8.999999999999999e-08,0.0,0.0,0.0,8.999999999999999e-08,0.0,0.0,0.0,8.999999999999999e-08
1758482368685231200,4751,1758482368683490176,base_link,-0.00037833503561123964,-0.009747593073196687,0.0009685714533688155,-0.9999519504262293,1.0,0.0,0.0,0.0,1.0,0.0,0.0,0.0,1.0,-0.0013799660373479128,-0.02279103919863701,-0.0004867748357355567,1.2184696791468346e-07,0.0,0.0,0.0,1.2184696791468346e-07,0.0,0.0,0.0,1.2184696791468346e-07,0.02941995,1.202169221539125e-15,9.81645665,8.999999999999999e-08,0.0,0.0,0.0,8.999999999999999e-08,0.0,0.0,0.0,8.999999999999999e-08
1758482368930007300,4752,1758482368933649152,base_link,-0.0005627307773237782,-0.006872442168156392,0.0009453971479306262,-0.9999757792551529,1.0,0.0,0.0,0.0,1.0,0.0,0.0,0.0,1.0,0.0006297931540757418,-0.020175375044345856,-0.0007436326704919313,1.2184696791468346e-07,0.0,0.0,0.0,1.2184696791468346e-07,0.0,0.0,0.0,1.2184696791468346e-07,0.0196133,1.202169221539125e-15,9.81645665,8.999999999999999e-08,0.0,0.0,0.0,8.999999999999999e-08,0.0,0.0,0.0,8.999999999999999e-08
1758482369181889400,4753,1758482369183761280,base_link,-0.0007327225523603296,0.01489212826499691,0.0009397846918885464,-0.9998883959913392,1.0,0.0,0.0,0.0,1.0,0.0,0.0,0.0,1.0,0.0043846480548381805,-0.4339008033275604,-0.0006539190653711026,1.2184696791468346e-07,0.0,0.0,0.0,1.2184696791468346e-07,0.0,0.0,0.0,1.2184696791468346e-07,0.0,1.202169221539125e-15,9.81645665,8.999999999999999e-08,0.0,0.0,0.0,8.999999999999999e-08,0.0,0.0,0.0,8.999999999999999e-08
1758482369432018600,4754,1758482369434929984,base_link,-0.00089986330461614,0.07328946300072336,0.0008977222440044219,-0.997309901161054,1.0,0.0,0.0,0.0,1.0,0.0,0.0,0.0,1.0,-0.000283755362033844,-0.16667701303958893,-0.00025844457559285504,1.2184696791468346e-07,0.0,0.0,0.0,1.2184696791468346e-07,0.0,0.0,0.0,1.2184696791468346e-07,0.0,1.202169221539125e-15,9.81645665,8.999999999999999e-08,0.0,0.0,0.0,8.999999999999999e-08,0.0,0.0,0.0,8.999999999999999e-08
1758482369682624200,4755,1758482369685036992,base_link,-0.0009290511324090782,0.04910648290317976,0.0008472555983537497,-0.9987927574621396,1.0,0.0,0.0,0.0,1.0,0.0,0.0,0.0,1.0,-0.0023172374349087477,0.3116874098777771,-0.0008249240927398586,1.2184696791468346e-07,0.0,0.0,0.0,1.2184696791468346e-07,0.0,0.0,0.0,1.2184696791468346e-07,0.04903325,1.2129779358186976e-15,9.9047165,8.999999999999999e-08,0.0,0.0,0.0,8.999999999999999e-08,0.0,0.0,0.0,8.999999999999999e-08
1758482369933598700,4756,1758482369935210816,base_link,-0.0006891434824068862,0.016963513824625742,0.0009262808182186621,-0.9998554426935067,1.0,0.0,0.0,0.0,1.0,0.0,0.0,0.0,1.0,-0.0011837214697152376,0.20243899524211884,-0.0009465699549764643,1.2184696791468346e-07,0.0,0.0,0.0,1.2184696791468346e-07,0.0,0.0,0.0,1.2184696791468346e-07,0.1372931,1.2081740628055542e-15,9.8654899,8.999999999999999e-08,0.0,0.0,0.0,8.999999999999999e-08,0.0,0.0,0.0,8.999999999999999e-08
1758482370184494500,4757,1758482370184329600,base_link,-0.0005852151867374124,-0.001883034977387499,0.0009147986055549894,-0.9999976374201944,1.0,0.0,0.0,0.0,1.0,0.0,0.0,0.0,1.0,-0.0013079920317977667,0.115122489631176,6.98466319590666e-05,1.2184696791468346e-07,0.0,0.0,0.0,1.2184696791468346e-07,0.0,0.0,0.0,1.2184696791468346e-07,0.16671305,1.1997672850325534e-15,9.79684335,8.999999999999999e-08,0.0,0.0,0.0,8.999999999999999e-08,0.0,0.0,0.0,8.999999999999999e-08
1758482370435252800,4758,1758482370434491136,base_link,-0.00048765806751680955,-0.012153690069592892,0.0008800959118437916,-0.9999256349541638,1.0,0.0,0.0,0.0,1.0,0.0,0.0,0.0,1.0,-0.0010646546725183725,0.060034848749637604,-0.0004436797462403848,1.2184696791468346e-07,0.0,0.0,0.0,1.2184696791468346e-07,0.0,0.0,0.0,1.2184696791468346e-07,0.16671305,1.202169221539125e-15,9.81645665,8.999999999999999e-08,0.0,0.0,0.0,8.999999999999999e-08,0.0,0.0,0.0,8.999999999999999e-08
1758482370686067300,4759,1758482370684604800,base_link,-0.00043506703143962204,-0.016617582129637376,0.0008734259209030583,-0.9998614423048844,1.0,0.0,0.0,0.0,1.0,0.0,0.0,0.0,1.0,-0.0016242172569036484,0.02082008309662342,-0.0003268618602305676,1.2184696791468346e-07,0.0,0.0,0.0,1.2184696791468346e-07,0.0,0.0,0.0,1.2184696791468346e-07,0.1372931,1.202169221539125e-15,9.81645665,8.999999999999999e-08,0.0,0.0,0.0,8.999999999999999e-08,0.0,0.0,0.0,8.999999999999999e-08
1758482370931587000,4760,1758482370934766848,base_link,-0.00046739764235578226,-0.017218727856775362,0.0008497908844256042,-0.9998512763435825,1.0,0.0,0.0,0.0,1.0,0.0,0.0,0.0,1.0,1.9244849681854248e-05,-0.006381218321621418,-0.0004284495953470461,1.2184696791468346e-07,0.0,0.0,0.0,1.2184696791468346e-07,0.0,0.0,0.0,1.2184696791468346e-07,0.10787315,1.2033701897924109e-15,9.8262633,8.999999999999999e-08,0.0,0.0,0.0,8.999999999999999e-08,0.0,0.0,0.0,8.999999999999999e-08
1758482371182584600,4761,1758482371184875904,base_link,-0.0005373043494843322,-0.015624151414876247,0.0008258344784058393,-0.9998774500877672,1.0,0.0,0.0,0.0,1.0,0.0,0.0,0.0,1.0,0.0033447162713855505,-0.02097458206117153,-0.000375079689547417,1.2184696791468346e-07,0.0,0.0,0.0,1.2184696791468346e-07,0.0,0.0,0.0,1.2184696791468346e-07,0.0784532,1.2033701897924109e-15,9.8262633,8.999999999999999e-08,0.0,0.0,0.0,8.999999999999999e-08,0.0,0.0,0.0,8.999999999999999e-08
1758482371433142000,4762,1758482371435048192,base_link,-0.0006539522985705846,-0.012870853404008103,0.0007815580386347768,-0.9999166478492474,1.0,0.0,0.0,0.0,1.0,0.0,0.0,0.0,1.0,0.0032391187269240618,-0.026349462568759918,-0.00047913403250276717,1.2184696791468346e-07,0.0,0.0,0.0,1.2184696791468346e-07,0.0,0.0,0.0,1.2184696791468346e-07,0.0588399,1.202169221539125e-15,9.81645665,8.999999999999999e-08,0.0,0.0,0.0,8.999999999999999e-08,0.0,0.0,0.0,8.999999999999999e-08
1758482371683792000,4763,1758482371686165696,base_link,-0.0007275919992085908,-0.009718536048239253,0.0007639055787637678,-0.9999522174160266,1.0,0.0,0.0,0.0,1.0,0.0,0.0,0.0,1.0,0.00013963691890239716,-0.02458079531788826,-0.0006733180489391058,1.2184696791468346e-07,0.0,0.0,0.0,1.2184696791468346e-07,0.0,0.0,0.0,1.2184696791468346e-07,0.02941995,1.202169221539125e-15,9.81645665,8.999999999999999e-08,0.0,0.0,0.0,8.999999999999999e-08,0.0,0.0,0.0,8.999999999999999e-08
1758482371934893000,4764,1758482371936329792,base_link,-0.0007799914663685329,-0.006789866511841283,0.0007450798555096445,-0.9999763668117725,1.0,0.0,0.0,0.0,1.0,0.0,0.0,0.0,1.0,-0.0006051172968000174,-0.020527807995676994,-0.0007469528354704355,1.2184696791468346e-07,0.0,0.0,0.0,1.2184696791468346e-07,0.0,0.0,0.0,1.2184696791468346e-07,0.0196133,1.202169221539125e-15,9.81645665,8.999999999999999e-08,0.0,0.0,0.0,8.999999999999999e-08,0.0,0.0,0.0,8.999999999999999e-08
1758482372185699300,4765,1758482372185444992,base_link,0.01949856121669308,-0.004968733308094045,0.0006327320952888568,-0.9997973381890388,1.0,0.0,0.0,0.0,1.0,0.0,0.0,0.0,1.0,-0.4332939684391022,-0.005670330487191677,-0.0012945728376507753,1.2184696791468346e-07,0.0,0.0,0.0,1.2184696791468346e-07,0.0,0.0,0.0,1.2184696791468346e-07,0.0,1.202169221539125e-15,9.81645665,8.999999999999999e-08,0.0,0.0,0.0,8.999999999999999e-08,0.0,0.0,0.0,8.999999999999999e-08
1758482372436563900,4766,1758482372435558656,base_link,0.07501473012818916,-0.0023725118492401304,0.00042106405423514276,-0.9971795145089888,1.0,0.0,0.0,0.0,1.0,0.0,0.0,0.0,1.0,-0.11790663748979568,-0.028347354382276535,-0.0036278532352298463,1.2184696791468346e-07,0.0,0.0,0.0,1.2184696791468346e-07,0.0,0.0,0.0,1.2184696791468346e-07,0.0,1.202169221539125e-15,9.81645665,8.999999999999999e-08,0.0,0.0,0.0,8.999999999999999e-08,0.0,0.0,0.0,8.999999999999999e-08
1758482372688080200,4767,1758482372685668224,base_link,0.047306771163052236,-0.00043959443248792895,0.0006743749641780483,-0.9988800835822433,1.0,0.0,0.0,0.0,1.0,0.0,0.0,0.0,1.0,0.3213864266872406,-0.004717533476650715,-0.0030046361498534675,1.2184696791468346e-07,0.0,0.0,0.0,1.2184696791468346e-07,0.0,0.0,0.0,1.2184696791468346e-07,0.0,-0.05883989999999879,9.91452315,8.999999999999999e-08,0.0,0.0,0.0,8.999999999999999e-08,0.0,0.0,0.0,8.999999999999999e-08
1758482372932424800,4768,1758482372935832064,base_link,0.014779632263073257,-4.618473716580621e-05,0.0008344317728588568,-0.9998904260271496,1.0,0.0,0.0,0.0,1.0,0.0,0.0,0.0,1.0,0.20541979372501373,-0.0012334366329014301,-0.0006237628404051064,1.2184696791468346e-07,0.0,0.0,0.0,1.2184696791468346e-07,0.0,0.0,0.0,1.2184696791468346e-07,0.0,-0.1470997499999988,9.85568325,8.999999999999999e-08,0.0,0.0,0.0,8.999999999999999e-08,0.0,0.0,0.0,8.999999999999999e-08
1758482373183410300,4769,1758482373185945728,base_link,-0.004303523463756351,8.225116198082952e-05,0.0007691112841970438,-0.9999904406484973,1.0,0.0,0.0,0.0,1.0,0.0,0.0,0.0,1.0,0.11687734723091125,-0.0009628708939999342,0.00018922518938779842,1.2184696791468346e-07,0.0,0.0,0.0,1.2184696791468346e-07,0.0,0.0,0.0,1.2184696791468346e-07,0.0,-0.1765196999999988,9.80665,8.999999999999999e-08,0.0,0.0,0.0,8.999999999999999e-08,0.0,0.0,0.0,8.999999999999999e-08
1758482373434136200,4770,1758482373436058112,base_link,-0.01445640154823899,8.801993802349299e-05,0.0007096684909269069,-0.9998952450519001,1.0,0.0,0.0,0.0,1.0,0.0,0.0,0.0,1.0,0.05744265764951706,0.002295868704095483,-0.00035812030546367196,1.2184696791468346e-07,0.0,0.0,0.0,1.2184696791468346e-07,0.0,0.0,0.0,1.2184696791468346e-07,0.0,-0.1667130499999988,9.80665,8.999999999999999e-08,0.0,0.0,0.0,8.999999999999999e-08,0.0,0.0,0.0,8.999999999999999e-08
1758482373685127100,4771,1758482373687175616,base_link,-0.018654469094303724,8.37695182471405e-05,0.0007028102898520849,-0.9998257397282657,1.0,0.0,0.0,0.0,1.0,0.0,0.0,0.0,1.0,0.015406638383865356,0.0024008038453757763,-0.0006240925285965207,1.2184696791468346e-07,0.0,0.0,0.0,1.2184696791468346e-07,0.0,0.0,0.0,1.2184696791468346e-07,0.0,-0.1470997499999988,9.81645665,8.999999999999999e-08,0.0,0.0,0.0,8.999999999999999e-08,0.0,0.0,0.0,8.999999999999999e-08
1758482373935894000,4772,1758482373937335104,base_link,-0.01915044299165273,0.00015990136010360535,0.000709544029756537,-0.9998163488921594,1.0,0.0,0.0,0.0,1.0,0.0,0.0,0.0,1.0,-0.00688723661005497,-0.002123092534020543,-7.748999632894967e-05,1.2184696791468346e-07,0.0,0.0,0.0,1.2184696791468346e-07,0.0,0.0,0.0,1.2184696791468346e-07,0.0,-0.1176797999999988,9.8262633,8.999999999999999e-08,0.0,0.0,0.0,8.999999999999999e-08,0.0,0.0,0.0,8.999999999999999e-08
1758482374187336600,4773,1758482374187447232,base_link,-0.017179495187612227,0.0004223295801122732,0.0006373057083584044,-0.9998521292792544,1.0,0.0,0.0,0.0,1.0,0.0,0.0,0.0,1.0,-0.01914391666650772,-0.0023168399930000305,-0.0004259294364601371,1.2184696791468346e-07,0.0,0.0,0.0,1.2184696791468346e-07,0.0,0.0,0.0,1.2184696791468346e-07,0.0,-0.0784531999999988,9.8262633,8.999999999999999e-08,0.0,0.0,0.0,8.999999999999999e-08,0.0,0.0,0.0,8.999999999999999e-08
1758482374437705800,4774,1758482374436567296,base_link,-0.014136346032429728,0.0006416200155804856,0.0006244322220460008,-0.9998996760320544,1.0,0.0,0.0,0.0,1.0,0.0,0.0,0.0,1.0,-0.022951744496822357,-0.004305873066186905,-0.0007797849830240006,1.2184696791468346e-07,0.0,0.0,0.0,1.2184696791468346e-07,0.0,0.0,0.0,1.2184696791468346e-07,0.0,-0.0588398999999988,9.81645665,8.999999999999999e-08,0.0,0.0,0.0,8.999999999999999e-08,0.0,0.0,0.0,8.999999999999999e-08
1758482374688574500,4775,1758482374686675072,base_link,-0.010969750533009791,0.0008957096615255242,0.0006155447218538225,-0.9999392398451723,1.0,0.0,0.0,0.0,1.0,0.0,0.0,0.0,1.0,-0.024415379390120506,-0.003147365292534232,-0.0006899496074765916,1.2184696791468346e-07,0.0,0.0,0.0,1.2184696791468346e-07,0.0,0.0,0.0,1.2184696791468346e-07,0.0,-0.0294199499999988,9.81645665,8.999999999999999e-08,0.0,0.0,0.0,8.999999999999999e-08,0.0,0.0,0.0,8.999999999999999e-08
1758482374933461700,4776,1758482374936789760,base_link,-0.007963241980042548,0.0011003034592918758,0.0005897080844977643,-0.9999675136492383,1.0,0.0,0.0,0.0,1.0,0.0,0.0,0.0,1.0,-0.020893355831503868,-0.003115190425887704,-0.0008412152528762813,1.2184696791468346e-07,0.0,0.0,0.0,1.2184696791468346e-07,0.0,0.0,0.0,1.2184696791468346e-07,0.0,-0.0196132999999988,9.81645665,8.999999999999999e-08,0.0,0.0,0.0,8.999999999999999e-08,0.0,0.0,0.0,8.999999999999999e-08
1758482375184472300,4777,1758482375186909824,base_link,-0.006108343942545,-0.018684150576540992,0.0004463011425017693,-0.9998066770465193,1.0,0.0,0.0,0.0,1.0,0.0,0.0,0.0,1.0,-0.005014029797166586,0.430588036775589,-0.0014407900162041714,1.2184696791468346e-07,0.0,0.0,0.0,1.2184696791468346e-07,0.0,0.0,0.0,1.2184696791468346e-07,0.0,1.202169221539125e-15,9.81645665,8.999999999999999e-08,0.0,0.0,0.0,8.999999999999999e-08,0.0,0.0,0.0,8.999999999999999e-08
1758482375435294600,4778,1758482375437072640,base_link,-0.003628511485829143,-0.07485217582991827,0.00026441065430532024,-0.9971880042223382,1.0,0.0,0.0,0.0,1.0,0.0,0.0,0.0,1.0,-0.026338057592511177,0.1264898031949997,-0.0045546726323664345,1.2184696791468346e-07,0.0,0.0,0.0,1.2184696791468346e-07,0.0,0.0,0.0,1.2184696791468346e-07,0.0,1.202169221539125e-15,9.81645665,8.999999999999999e-08,0.0,0.0,0.0,8.999999999999999e-08,0.0,0.0,0.0,8.999999999999999e-08
1758482375686339300,4779,1758482375688187328,base_link,-0.001430910617223878,-0.04753577836081145,0.0005051423294993833,-0.9988683832726233,1.0,0.0,0.0,0.0,1.0,0.0,0.0,0.0,1.0,-0.006526371464133263,-0.3194124400615692,-0.002837765496224126,1.2184696791468346e-07,0.0,0.0,0.0,1.2184696791468346e-07,0.0,0.0,0.0,1.2184696791468346e-07,-0.06864655,1.2141789040719834e-15,9.91452315,8.999999999999999e-08,0.0,0.0,0.0,8.999999999999999e-08,0.0,0.0,0.0,8.999999999999999e-08
1758482375936968200,4780,1758482375938300736,base_link,-0.0008685771101786813,-0.014832550848561638,0.0006257976982534932,-0.9998894185790592,1.0,0.0,0.0,0.0,1.0,0.0,0.0,0.0,1.0,-0.0016044208314269781,-0.20636238157749176,-0.0007521007210015998,1.2184696791468346e-07,0.0,0.0,0.0,1.2184696791468346e-07,0.0,0.0,0.0,1.2184696791468346e-07,-0.14709975,1.2069730945522684e-15,9.85568325,8.999999999999999e-08,0.0,0.0,0.0,8.999999999999999e-08,0.0,0.0,0.0,8.999999999999999e-08
1758482376188282400,4781,1758482376188410048,base_link,-0.0007962019025545723,0.004412308551453739,0.0004977096923282078,-0.9999898248886532,1.0,0.0,0.0,0.0,1.0,0.0,0.0,0.0,1.0,0.002033411990851164,-0.11769264191389084,-0.00017719133757053364,1.2184696791468346e-07,0.0,0.0,0.0,1.2184696791468346e-07,0.0,0.0,0.0,1.2184696791468346e-07,-0.1765197,1.2009682532858392e-15,9.80665,8.999999999999999e-08,0.0,0.0,0.0,8.999999999999999e-08,0.0,0.0,0.0,8.999999999999999e-08
1758482376438755200,4782,1758482376437526784,base_link,-0.0009415942649136916,0.014742740303434471,0.0004584112322911236,-0.9998907714684278,1.0,0.0,0.0,0.0,1.0,0.0,0.0,0.0,1.0,7.508671842515469e-05,-0.05738139897584915,-0.0011132811196148326,1.2184696791468346e-07,0.0,0.0,0.0,1.2184696791468346e-07,0.0,0.0,0.0,1.2184696791468346e-07,-0.1765197,1.2009682532858392e-15,9.80665,8.999999999999999e-08,0.0,0.0,0.0,8.999999999999999e-08,0.0,0.0,0.0,8.999999999999999e-08
1758482376689670300,4783,1758482376687648128,base_link,-0.0009926064901564133,0.01900666282468104,0.00047572210202506796,-0.9998187511689838,1.0,0.0,0.0,0.0,1.0,0.0,0.0,0.0,1.0,-0.0004882160574197769,-0.014727757312357426,-0.0013084148522466404,1.2184696791468346e-07,0.0,0.0,0.0,1.2184696791468346e-07,0.0,0.0,0.0,1.2184696791468346e-07,-0.14709975,1.2033701897924109e-15,9.8262633,8.999999999999999e-08,0.0,0.0,0.0,8.999999999999999e-08,0.0,0.0,0.0,8.999999999999999e-08
1758482376934559600,4784,1758482376937760512,base_link,-0.0010437941223897288,0.019444337947252102,0.0005034691764514999,-0.9998102693683494,1.0,0.0,0.0,0.0,1.0,0.0,0.0,0.0,1.0,0.0019224798306822777,0.005899166222661734,-0.0008146339096128948,1.2184696791468346e-07,0.0,0.0,0.0,1.2184696791468346e-07,0.0,0.0,0.0,1.2184696791468346e-07,-0.1176798,1.2033701897924109e-15,9.8262633,8.999999999999999e-08,0.0,0.0,0.0,8.999999999999999e-08,0.0,0.0,0.0,8.999999999999999e-08
1758482377186425300,4785,1758482377187877504,base_link,-0.0010829792788462091,0.01763146588249409,0.0004864341904314295,-0.9998438487826458,1.0,0.0,0.0,0.0,1.0,0.0,0.0,0.0,1.0,0.0028031845577061176,0.016353145241737366,-0.0009026015177369137,1.2184696791468346e-07,0.0,0.0,0.0,1.2184696791468346e-07,0.0,0.0,0.0,1.2184696791468346e-07,-0.08825985,1.2033701897924109e-15,9.8262633,8.999999999999999e-08,0.0,0.0,0.0,8.999999999999999e-08,0.0,0.0,0.0,8.999999999999999e-08
1758482377436470100,4786,1758482377437993472,base_link,-0.0010266779137654354,0.014674383041815646,0.0005032879243154773,-0.999891671690523,1.0,0.0,0.0,0.0,1.0,0.0,0.0,0.0,1.0,-0.0008023164700716734,0.02653062343597412,-0.0008629877120256456,1.2184696791468346e-07,0.0,0.0,0.0,1.2184696791468346e-07,0.0,0.0,0.0,1.2184696791468346e-07,-0.0588399,1.202169221539125e-15,9.81645665,8.999999999999999e-08,0.0,0.0,0.0,8.999999999999999e-08,0.0,0.0,0.0,8.999999999999999e-08
1758482377687255700,4787,1758482377688105856,base_link,-0.0008408694882053542,0.011279726611165112,0.0005194864889671031,-0.9999358933651041,1.0,0.0,0.0,0.0,1.0,0.0,0.0,0.0,1.0,-0.004843883216381073,0.027846509590744972,-0.0007681830320507322,1.2184696791468346e-07,0.0,0.0,0.0,1.2184696791468346e-07,0.0,0.0,0.0,1.2184696791468346e-07,-0.0392266,1.202169221539125e-15,9.81645665,8.999999999999999e-08,0.0,0.0,0.0,8.999999999999999e-08,0.0,0.0,0.0,8.999999999999999e-08
1758482377938050700,4788,1758482377939273792,base_link,-0.0004841687695502595,0.008123590159801996,0.0005159684222502131,-0.9999667527673634,1.0,0.0,0.0,0.0,1.0,0.0,0.0,0.0,1.0,-0.003950479440391064,0.021277152001857758,-0.0005329365376383092,1.2184696791468346e-07,0.0,0.0,0.0,1.2184696791468346e-07,0.0,0.0,0.0,1.2184696791468346e-07,-0.0196133,1.202169221539125e-15,9.81645665,8.999999999999999e-08,0.0,0.0,0.0,8.999999999999999e-08,0.0,0.0,0.0,8.999999999999999e-08
1758482378189076500,4789,1758482378189389248,base_link,-0.00019592593320443813,-0.013972561897166915,0.0005030537230938372,-0.9999022332528364,1.0,0.0,0.0,0.0,1.0,0.0,0.0,0.0,1.0,-0.0036554369144141674,0.43478477001190186,-0.0006075664423406656,1.2184696791468346e-07,0.0,0.0,0.0,1.2184696791468346e-07,0.0,0.0,0.0,1.2184696791468346e-07,-0.00980665,1.202169221539125e-15,9.81645665,8.999999999999999e-08,0.0,0.0,0.0,8.999999999999999e-08,0.0,0.0,0.0,8.999999999999999e-08
1758482378439898600,4790,1758482378438503936,base_link,-6.111251669946443e-05,-0.07210618270240096,0.0004967700999432512,-0.9973968357182692,1.0,0.0,0.0,0.0,1.0,0.0,0.0,0.0,1.0,-0.0003265012055635452,0.16290858387947083,-0.00046162772923709957,1.2184696791468346e-07,0.0,0.0,0.0,1.2184696791468346e-07,0.0,0.0,0.0,1.2184696791468346e-07,0.0,1.202169221539125e-15,9.81645665,8.999999999999999e-08,0.0,0.0,0.0,8.999999999999999e-08,0.0,0.0,0.0,8.999999999999999e-08
1758482378690501200,4791,1758482378688623232,base_link,-0.00010004128981238928,-0.04733542024794049,0.0005069056692105749,-0.9988789171007335,1.0,0.0,0.0,0.0,1.0,0.0,0.0,0.0,1.0,0.0009210985153913498,-0.31218257546424866,-0.0003443476743995761,1.2184696791468346e-07,0.0,0.0,0.0,1.2184696791468346e-07,0.0,0.0,0.0,1.2184696791468346e-07,-0.04903325,1.2129779358186976e-15,9.9047165,8.999999999999999e-08,0.0,0.0,0.0,8.999999999999999e-08,0.0,0.0,0.0,8.999999999999999e-08
1758482378935988900,4792,1758482378938733312,base_link,-0.00014657128879653637,-0.015135244954061659,0.00046943989468106647,-0.9998853346775434,1.0,0.0,0.0,0.0,1.0,0.0,0.0,0.0,1.0,0.0014348779805004597,-0.20135606825351715,-0.00043480889871714033,1.2184696791468346e-07,0.0,0.0,0.0,1.2184696791468346e-07,0.0,0.0,0.0,1.2184696791468346e-07,-0.1372931,1.2069730945522684e-15,9.85568325,8.999999999999999e-08,0.0,0.0,0.0,8.999999999999999e-08,0.0,0.0,0.0,8.999999999999999e-08
1758482379186930800,4793,1758482379188848256,base_link,-0.0002232196695014442,0.003531292945451317,0.0004395248685233335,-0.9999936434602985,1.0,0.0,0.0,0.0,1.0,0.0,0.0,0.0,1.0,0.0027097587008029222,-0.11246836930513382,-0.0006547023076563936,1.2184696791468346e-07,0.0,0.0,0.0,1.2184696791468346e-07,0.0,0.0,0.0,1.2184696791468346e-07,-0.16671305,1.2009682532858392e-15,9.80665,8.999999999999999e-08,0.0,0.0,0.0,8.999999999999999e-08,0.0,0.0,0.0,8.999999999999999e-08
1758482379437848500,4794,1758482379439020800,base_link,-0.00043593998929174503,0.013722291266893451,0.00043081785332571646,-0.999905657087052,1.0,0.0,0.0,0.0,1.0,0.0,0.0,0.0,1.0,0.0005058504175394773,-0.0586652010679245,-0.0007752995006740022,1.2184696791468346e-07,0.0,0.0,0.0,1.2184696791468346e-07,0.0,0.0,0.0,1.2184696791468346e-07,-0.16671305,1.2009682532858392e-15,9.80665,8.999999999999999e-08,0.0,0.0,0.0,8.999999999999999e-08,0.0,0.0,0.0,8.999999999999999e-08
1758482379688727200,4795,1758482379689130112,base_link,-0.0006002705386395612,0.017913203215930852,0.00043263165326479333,-0.9998392719110797,1.0,0.0,0.0,0.0,1.0,0.0,0.0,0.0,1.0,-0.0012554102577269077,-0.014974992722272873,-0.0005466232541948538,1.2184696791468346e-07,0.0,0.0,0.0,1.2184696791468346e-07,0.0,0.0,0.0,1.2184696791468346e-07,-0.14709975,1.202169221539125e-15,9.81645665,8.999999999999999e-08,0.0,0.0,0.0,8.999999999999999e-08,0.0,0.0,0.0,8.999999999999999e-08
1758482379939481700,4796,1758482379940247104,base_link,-0.000662373898355236,0.01839801804253985,0.00042427538857564676,-0.999830432715128,1.0,0.0,0.0,0.0,1.0,0.0,0.0,0.0,1.0,0.000490580452606082,0.005430226214230061,-0.0006463904865086085,1.2184696791468346e-07,0.0,0.0,0.0,1.2184696791468346e-07,0.0,0.0,0.0,1.2184696791468346e-07,-0.10787315,1.2033701897924109e-15,9.8262633,8.999999999999999e-08,0.0,0.0,0.0,8.999999999999999e-08,0.0,0.0,0.0,8.999999999999999e-08
1758482380190259100,4797,1758482380190369472,base_link,-0.0006887791479069679,0.016725975888496357,0.00042629094167379137,-0.9998597829645393,1.0,0.0,0.0,0.0,1.0,0.0,0.0,0.0,1.0,0.0016730092465877533,0.01537277176976204,-0.0005539921112358589,1.2184696791468346e-07,0.0,0.0,0.0,1.2184696791468346e-07,0.0,0.0,0.0,1.2184696791468346e-07,-0.0784532,1.2033701897924109e-15,9.8262633,8.999999999999999e-08,0.0,0.0,0.0,8.999999999999999e-08,0.0,0.0,0.0,8.999999999999999e-08
1758482380441203700,4798,1758482380440481344,base_link,-0.0006512350561126036,0.013944336087003191,0.00043534178318072134,-0.9999024661743394,1.0,0.0,0.0,0.0,1.0,0.0,0.0,0.0,1.0,0.0012651900760829449,0.022020138800144196,-0.0005447722505778101,1.2184696791468346e-07,0.0,0.0,0.0,1.2184696791468346e-07,0.0,0.0,0.0,1.2184696791468346e-07,-0.0588399,1.202169221539125e-15,9.81645665,8.999999999999999e-08,0.0,0.0,0.0,8.999999999999999e-08,0.0,0.0,0.0,8.999999999999999e-08
1758482380692215100,4799,1758482380689598080,base_link,-0.0005424571918833451,0.010810870790352915,0.00044182871910625264,-0.9999413160782646,1.0,0.0,0.0,0.0,1.0,0.0,0.0,0.0,1.0,-0.0011000572703778744,0.026835039258003235,-0.0005261881742626461,1.2184696791468346e-07,0.0,0.0,0.0,1.2184696791468346e-07,0.0,0.0,0.0,1.2184696791468346e-07,-0.02941995,1.202169221539125e-15,9.81645665,8.999999999999999e-08,0.0,0.0,0.0,8.999999999999999e-08,0.0,0.0,0.0,8.999999999999999e-08
1758482380937420200,4800,1758482380939722496,base_link,-0.0004780852624204885,0.007845016339642685,0.0004378412332453068,-0.999969017244118,1.0,0.0,0.0,0.0,1.0,0.0,0.0,0.0,1.0,0.00047271978110074997,0.024111712351441383,-0.00045319693163037593,1.2184696791468346e-07,0.0,0.0,0.0,1.2184696791468346e-07,0.0,0.0,0.0,1.2184696791468346e-07,-0.0196133,1.202169221539125e-15,9.81645665,8.999999999999999e-08,0.0,0.0,0.0,8.999999999999999e-08,0.0,0.0,0.0,8.999999999999999e-08
1758482381188211800,4801,1758482381189834624,base_link,-0.0002826448710076469,-0.014903764793963391,0.00042150703191084956,-0.9998888039370504,1.0,0.0,0.0,0.0,1.0,0.0,0.0,0.0,1.0,-0.0014905651332810521,0.44406965374946594,-0.00046483636833732797,1.2184696791468346e-07,0.0,0.0,0.0,1.2184696791468346e-07,0.0,0.0,0.0,1.2184696791468346e-07,-0.00980665,1.202169221539125e-15,9.81645665,8.999999999999999e-08,0.0,0.0,0.0,8.999999999999999e-08,0.0,0.0,0.0,8.999999999999999e-08
1758482381439102500,4802,1758482381439954176,base_link,-0.00018436450389596042,-0.07251023424391217,0.0004301984098603562,-0.9973675585605093,1.0,0.0,0.0,0.0,1.0,0.0,0.0,0.0,1.0,0.00012908410280942917,0.14913208782672882,-0.00031185289844872394,1.2184696791468346e-07,0.0,0.0,0.0,1.2184696791468346e-07,0.0,0.0,0.0,1.2184696791468346e-07,0.0,1.202169221539125e-15,9.81645665,8.999999999999999e-08,0.0,0.0,0.0,8.999999999999999e-08,0.0,0.0,0.0,8.999999999999999e-08
1758482381689842900,4803,1758482381690078592,base_link,-0.00020125517442490723,-0.047194150992001166,0.0004541792896150503,-0.9988856117342326,1.0,0.0,0.0,0.0,1.0,0.0,0.0,0.0,1.0,-0.0004156404174864292,-0.3108789920806885,-0.00035265949554737577,1.2184696791468346e-07,0.0,0.0,0.0,1.2184696791468346e-07,0.0,0.0,0.0,1.2184696791468346e-07,-0.04903325,1.2129779358186976e-15,9.9047165,8.999999999999999e-08,0.0,0.0,0.0,8.999999999999999e-08,0.0,0.0,0.0,8.999999999999999e-08
1758482381940547700,4804,1758482381941193280,base_link,-0.00028872125674144665,-0.015231727896011972,0.0003873658115144387,-0.9998838737838838,1.0,0.0,0.0,0.0,1.0,0.0,0.0,0.0,1.0,0.0025457600131630898,-0.19982711970806122,-0.00020748958922920164,1.2184696791468346e-07,0.0,0.0,0.0,1.2184696791468346e-07,0.0,0.0,0.0,1.2184696791468346e-07,-0.14709975,1.2069730945522684e-15,9.85568325,8.999999999999999e-08,0.0,0.0,0.0,8.999999999999999e-08,0.0,0.0,0.0,8.999999999999999e-08
1758482382191885600,4805,1758482382191374784,base_link,-0.0006545891503071259,0.0033608312342263704,0.00033452287873136943,-0.9999940821929412,1.0,0.0,0.0,0.0,1.0,0.0,0.0,0.0,1.0,0.0019709186162799597,-0.11506170779466629,-0.000917423516511903,1.2184696791468346e-07,0.0,0.0,0.0,1.2184696791468346e-07,0.0,0.0,0.0,1.2184696791468346e-07,-0.16671305,1.2009682532858392e-15,9.80665,8.999999999999999e-08,0.0,0.0,0.0,8.999999999999999e-08,0.0,0.0,0.0,8.999999999999999e-08
1758482382442541000,4806,1758482382441493056,base_link,-0.0008571910084746859,0.013646610723679422,0.000346744910918407,-0.9999064531281403,1.0,0.0,0.0,0.0,1.0,0.0,0.0,0.0,1.0,-0.00014222110621631145,-0.06050150841474533,-0.0008381314110010789,1.2184696791468346e-07,0.0,0.0,0.0,1.2184696791468346e-07,0.0,0.0,0.0,1.2184696791468346e-07,-0.16671305,1.2009682532858392e-15,9.80665,8.999999999999999e-08,0.0,0.0,0.0,8.999999999999999e-08,0.0,0.0,0.0,8.999999999999999e-08
1758482382693122300,4807,1758482382690607488,base_link,-0.0008999440929633584,0.017966898597767886,0.0003326663518456463,-0.9998381218919916,1.0,0.0,0.0,0.0,1.0,0.0,0.0,0.0,1.0,-0.0027337083593010902,-0.01637028157711029,-0.0005029742605984191,1.2184696791468346e-07,0.0,0.0,0.0,1.2184696791468346e-07,0.0,0.0,0.0,1.2184696791468346e-07,-0.14709975,1.202169221539125e-15,9.81645665,8.999999999999999e-08,0.0,0.0,0.0,8.999999999999999e-08,0.0,0.0,0.0,8.999999999999999e-08
1758482382938590400,4808,1758482382940730112,base_link,-0.0008544881284382374,0.01849888347637043,0.0003263459178690098,-0.9998284626167172,1.0,0.0,0.0,0.0,1.0,0.0,0.0,0.0,1.0,-0.0016089353011921048,0.004479209892451763,-0.0007463146466761833,1.2184696791468346e-07,0.0,0.0,0.0,1.2184696791468346e-07,0.0,0.0,0.0,1.2184696791468346e-07,-0.1176798,1.2033701897924109e-15,9.8262633,8.999999999999999e-08,0.0,0.0,0.0,8.999999999999999e-08,0.0,0.0,0.0,8.999999999999999e-08
1758482383189409400,4809,1758482383190848384,base_link,-0.000754044941123313,0.01678604067041473,0.000331255307508772,-0.9998587652887581,1.0,0.0,0.0,0.0,1.0,0.0,0.0,0.0,1.0,-0.0018516761483624578,0.016783256083726883,-0.0006365412846207639,1.2184696791468346e-07,0.0,0.0,0.0,1.2184696791468346e-07,0.0,0.0,0.0,1.2184696791468346e-07,-0.08825985,1.2033701897924109e-15,9.8262633,8.999999999999999e-08,0.0,0.0,0.0,8.999999999999999e-08,0.0,0.0,0.0,8.999999999999999e-08
1758482383440495200,4810,1758482383440965120,base_link,-0.0006206210007207597,0.014051361862941897,0.00034000354882851667,-0.9999010243303867,1.0,0.0,0.0,0.0,1.0,0.0,0.0,0.0,1.0,-0.0029788995161652565,0.02177954651415348,-0.0005813727620989111,1.2184696791468346e-07,0.0,0.0,0.0,1.2184696791468346e-07,0.0,0.0,0.0,1.2184696791468346e-07,-0.0588399,1.202169221539125e-15,9.81645665,8.999999999999999e-08,0.0,0.0,0.0,8.999999999999999e-08,0.0,0.0,0.0,8.999999999999999e-08
1758482383691215900,4811,1758482383691149696,base_link,-0.0004958144289944876,0.01097009816173745,0.00034427934392417046,-0.9999396444716587,1.0,0.0,0.0,0.0,1.0,0.0,0.0,0.0,1.0,-0.0005482924170792103,0.027187392115592957,-0.0005171936936676536,1.2184696791468346e-07,0.0,0.0,0.0,1.2184696791468346e-07,0.0,0.0,0.0,1.2184696791468346e-07,-0.0392266,1.202169221539125e-15,9.81645665,8.999999999999999e-08,0.0,0.0,0.0,8.999999999999999e-08,0.0,0.0,0.0,8.999999999999999e-08
1758482383941875200,4812,1758482383941262080,base_link,-0.0004021903958518839,0.007979478644077139,0.0003465391533684086,-0.9999680225257552,1.0,0.0,0.0,0.0,1.0,0.0,0.0,0.0,1.0,0.0010342877358198166,0.019821107387542725,-0.00044779083691537624,1.2184696791468346e-07,0.0,0.0,0.0,1.2184696791468346e-07,0.0,0.0,0.0,1.2184696791468346e-07,-0.0196133,1.202169221539125e-15,9.81645665,8.999999999999999e-08,0.0,0.0,0.0,8.999999999999999e-08,0.0,0.0,0.0,8.999999999999999e-08
1758482384192713800,4813,1758482384192438720,base_link,-0.00038414591569672175,-0.015671259313126445,0.0003363690612791505,-0.9998770679035052,1.0,0.0,0.0,0.0,1.0,0.0,0.0,0.0,1.0,0.0014406207483261824,0.450439989566803,-0.0004518446512520865,1.2184696791468346e-07,0.0,0.0,0.0,1.2184696791468346e-07,0.0,0.0,0.0,1.2184696791468346e-07,-0.00980665,1.202169221539125e-15,9.81645665,8.999999999999999e-08,0.0,0.0,0.0,8.999999999999999e-08,0.0,0.0,0.0,8.999999999999999e-08
1758482384443374000,4814,1758482384442563392,base_link,-0.0003411268291603361,-0.07238783169996242,0.0003392015394335601,-0.997376443674393,1.0,0.0,0.0,0.0,1.0,0.0,0.0,0.0,1.0,-0.000786622753366828,0.12863199412822723,-0.00046082353219391493,1.2184696791468346e-07,0.0,0.0,0.0,1.2184696791468346e-07,0.0,0.0,0.0,1.2184696791468346e-07,0.0,1.202169221539125e-15,9.81645665,8.999999999999999e-08,0.0,0.0,0.0,8.999999999999999e-08,0.0,0.0,0.0,8.999999999999999e-08
1758482384694422100,4815,1758482384691675520,base_link,-0.000411371577148338,-0.045854401519298406,0.00034254648829501184,-0.9989479902860988,1.0,0.0,0.0,0.0,1.0,0.0,0.0,0.0,1.0,-0.0001357134897261858,-0.310964435338974,-0.00011222553439434535,1.2184696791468346e-07,0.0,0.0,0.0,1.2184696791468346e-07,0.0,0.0,0.0,1.2184696791468346e-07,-0.0588399,1.2129779358186976e-15,9.9047165,8.999999999999999e-08,0.0,0.0,0.0,8.999999999999999e-08,0.0,0.0,0.0,8.999999999999999e-08
1758482384939897500,4816,1758482384941794816,base_link,-0.0008400748413799327,-0.014220154645282177,0.0002631860934691468,-0.9998985009535745,1.0,0.0,0.0,0.0,1.0,0.0,0.0,0.0,1.0,0.003408143064007163,-0.1991475522518158,-0.00020532612688836996,1.2184696791468346e-07,0.0,0.0,0.0,1.2184696791468346e-07,0.0,0.0,0.0,1.2184696791468346e-07,-0.1372931,1.2069730945522684e-15,9.85568325,8.999999999999999e-08,0.0,0.0,0.0,8.999999999999999e-08,0.0,0.0,0.0,8.999999999999999e-08
1758482385190599500,4817,1758482385191918720,base_link,-0.001102862644639051,0.004170899020789194,0.00022155614099117507,-0.9999906690605777,1.0,0.0,0.0,0.0,1.0,0.0,0.0,0.0,1.0,0.004706489387899637,-0.11078127473592758,-0.0010973380412906272,1.2184696791468346e-07,0.0,0.0,0.0,1.2184696791468346e-07,0.0,0.0,0.0,1.2184696791468346e-07,-0.16671305,1.2009682532858392e-15,9.80665,8.999999999999999e-08,0.0,0.0,0.0,8.999999999999999e-08,0.0,0.0,0.0,8.999999999999999e-08
1758482385441712900,4818,1758482385442033152,base_link,-0.0013208876205577833,0.014019535717854978,0.00021955233702508712,-0.999900824917612,1.0,0.0,0.0,0.0,1.0,0.0,0.0,0.0,1.0,0.004414035473018885,-0.05358189716935158,-0.0009948525112122232,1.2184696791468346e-07,0.0,0.0,0.0,1.2184696791468346e-07,0.0,0.0,0.0,1.2184696791468346e-07,-0.16671305,1.202169221539125e-15,9.81645665,8.999999999999999e-08,0.0,0.0,0.0,8.999999999999999e-08,0.0,0.0,0.0,8.999999999999999e-08
1758482385692203500,4819,1758482385692213120,base_link,-0.0014082352323531873,0.018066435123303803,0.00022252918267634647,-0.9998357721527215,1.0,0.0,0.0,0.0,1.0,0.0,0.0,0.0,1.0,-0.0006258634384721518,-0.016228554770350456,-0.000864415429532526,1.2184696791468346e-07,0.0,0.0,0.0,1.2184696791468346e-07,0.0,0.0,0.0,1.2184696791468346e-07,-0.14709975,1.202169221539125e-15,9.81645665,8.999999999999999e-08,0.0,0.0,0.0,8.999999999999999e-08,0.0,0.0,0.0,8.999999999999999e-08
1758482385942791200,4820,1758482385942334464,base_link,-0.0013493011158882697,0.01834259755605152,0.0002250643268675867,-0.9998308246135662,1.0,0.0,0.0,0.0,1.0,0.0,0.0,0.0,1.0,-0.0019050469854846597,0.006409577559679747,-0.0008503668941557415,1.2184696791468346e-07,0.0,0.0,0.0,1.2184696791468346e-07,0.0,0.0,0.0,1.2184696791468346e-07,-0.1176798,1.2033701897924109e-15,9.8262633,8.999999999999999e-08,0.0,0.0,0.0,8.999999999999999e-08,0.0,0.0,0.0,8.999999999999999e-08
1758482386194210100,4821,1758482386193506752,base_link,-0.001208808897622001,0.016584936840254867,0.0002473665136998881,-0.9998616991668705,1.0,0.0,0.0,0.0,1.0,0.0,0.0,0.0,1.0,-0.001734926481731236,0.019628966227173805,-0.0007546967826783681,1.2184696791468346e-07,0.0,0.0,0.0,1.2184696791468346e-07,0.0,0.0,0.0,1.2184696791468346e-07,-0.0784532,1.2033701897924109e-15,9.8262633,8.999999999999999e-08,0.0,0.0,0.0,8.999999999999999e-08,0.0,0.0,0.0,8.999999999999999e-08
1758482386444679000,4822,1758482386443632960,base_link,-0.0010268914370925833,0.013828507109523339,0.00025873121381603335,-0.9999038208464137,1.0,0.0,0.0,0.0,1.0,0.0,0.0,0.0,1.0,-0.0028373179957270622,0.024834077805280685,-0.0007185274735093147,1.2184696791468346e-07,0.0,0.0,0.0,1.2184696791468346e-07,0.0,0.0,0.0,1.2184696791468346e-07,-0.0588399,1.202169221539125e-15,9.81645665,8.999999999999999e-08,0.0,0.0,0.0,8.999999999999999e-08,0.0,0.0,0.0,8.999999999999999e-08
1758482386695589600,4823,1758482386693758656,base_link,-0.0008148307920242294,0.010668767929494064,0.00025765587689685686,-0.9999427218871569,1.0,0.0,0.0,0.0,1.0,0.0,0.0,0.0,1.0,-0.0010195462964475155,0.025043463334441185,-0.0006292094476521046,1.2184696791468346e-07,0.0,0.0,0.0,1.2184696791468346e-07,0.0,0.0,0.0,1.2184696791468346e-07,-0.02941995,1.202169221539125e-15,9.81645665,8.999999999999999e-08,0.0,0.0,0.0,8.999999999999999e-08,0.0,0.0,0.0,8.999999999999999e-08
1758482386940868200,4824,1758482386942874624,base_link,-0.0006507592631645871,0.007765194862347897,0.0002600659615407124,-0.9999696048514808,1.0,0.0,0.0,0.0,1.0,0.0,0.0,0.0,1.0,0.0012975847348570824,0.02036777324974537,-0.0005888489540666367,1.2184696791468346e-07,0.0,0.0,0.0,1.2184696791468346e-07,0.0,0.0,0.0,1.2184696791468346e-07,-0.0196133,1.202169221539125e-15,9.81645665,8.999999999999999e-08,0.0,0.0,0.0,8.999999999999999e-08,0.0,0.0,0.0,8.999999999999999e-08
1758482387192551000,4825,1758482387193058176,base_link,-0.0005440336350861474,-0.016538503135053104,0.00024811590388556967,-0.9998630508124369,1.0,0.0,0.0,0.0,1.0,0.0,0.0,0.0,1.0,0.0021503714378923178,0.4551236033439636,-0.0006127336528152785,1.2184696791468346e-07,0.0,0.0,0.0,1.2184696791468346e-07,0.0,0.0,0.0,1.2184696791468346e-07,-0.00980665,1.202169221539125e-15,9.81645665,8.999999999999999e-08,0.0,0.0,0.0,8.999999999999999e-08,0.0,0.0,0.0,8.999999999999999e-08
1758482387442776900,4826,1758482387443182848,base_link,-0.0004967320191577599,-0.07255797480105544,0.00023165223062770579,-0.9973640458164282,1.0,0.0,0.0,0.0,1.0,0.0,0.0,0.0,1.0,-0.0006802459247410297,0.11507353186607361,-0.000595246208831682,1.2184696791468346e-07,0.0,0.0,0.0,1.2184696791468346e-07,0.0,0.0,0.0,1.2184696791468346e-07,0.0,1.202169221539125e-15,9.81645665,8.999999999999999e-08,0.0,0.0,0.0,8.999999999999999e-08,0.0,0.0,0.0,8.999999999999999e-08
1758482387693825100,4827,1758482387693358976,base_link,-0.0006254278627318781,-0.0458025107766038,0.00024295549170616214,-0.9989502889629576,1.0,0.0,0.0,0.0,1.0,0.0,0.0,0.0,1.0,0.0012857145629823208,-0.31358712911605835,-0.0005723829381167505,1.2184696791468346e-07,0.0,0.0,0.0,1.2184696791468346e-07,0.0,0.0,0.0,1.2184696791468346e-07,-0.0588399,1.2129779358186976e-15,9.9047165,8.999999999999999e-08,0.0,0.0,0.0,8.999999999999999e-08,0.0,0.0,0.0,8.999999999999999e-08
1758482387944129600,4828,1758482387943481856,base_link,-0.0007122071871193467,-0.014124566997600778,0.0002032629463328264,-0.9998999690230155,1.0,0.0,0.0,0.0,1.0,0.0,0.0,0.0,1.0,0.0009514049161225557,-0.19797314703464508,-0.0004149866290390249,1.2184696791468346e-07,0.0,0.0,0.0,1.2184696791468346e-07,0.0,0.0,0.0,1.2184696791468346e-07,-0.14709975,1.2069730945522684e-15,9.85568325,8.999999999999999e-08,0.0,0.0,0.0,8.999999999999999e-08,0.0,0.0,0.0,8.999999999999999e-08
1758482388195303400,4829,1758482388194658496,base_link,-0.0008544096617910196,0.004226600778705181,0.00018290857619618377,-0.9999906861438461,1.0,0.0,0.0,0.0,1.0,0.0,0.0,0.0,1.0,0.004724621772766113,-0.11267697811126709,-0.0010972013697028021,1.2184696791468346e-07,0.0,0.0,0.0,1.2184696791468346e-07,0.0,0.0,0.0,1.2184696791468346e-07,-0.16671305,1.2009682532858392e-15,9.80665,8.999999999999999e-08,0.0,0.0,0.0,8.999999999999999e-08,0.0,0.0,0.0,8.999999999999999e-08
1758482388445802600,4830,1758482388444776768,base_link,-0.001071578673610306,0.014086056856795334,0.00016827503211708315,-0.9999001982222461,1.0,0.0,0.0,0.0,1.0,0.0,0.0,0.0,1.0,0.0035233127418905497,-0.05426012724637985,-0.000871286960318678,1.2184696791468346e-07,0.0,0.0,0.0,1.2184696791468346e-07,0.0,0.0,0.0,1.2184696791468346e-07,-0.16671305,1.2009682532858392e-15,9.80665,8.999999999999999e-08,0.0,0.0,0.0,8.999999999999999e-08,0.0,0.0,0.0,8.999999999999999e-08
1758482388696576200,4831,1758482388694962624,base_link,-0.0010851139433834859,0.018229929055674644,0.00016110658369805742,-0.9998332192215977,1.0,0.0,0.0,0.0,1.0,0.0,0.0,0.0,1.0,-0.0021063699387013912,-0.015373303554952145,-0.0008240798488259297,1.2184696791468346e-07,0.0,0.0,0.0,1.2184696791468346e-07,0.0,0.0,0.0,1.2184696791468346e-07,-0.14709975,1.202169221539125e-15,9.81645665,8.999999999999999e-08,0.0,0.0,0.0,8.999999999999999e-08,0.0,0.0,0.0,8.999999999999999e-08
1758482388941998700,4832,1758482388944075776,base_link,-0.0010304956684816925,0.018555388892041547,0.00015872535287558945,-0.999827290299682,1.0,0.0,0.0,0.0,1.0,0.0,0.0,0.0,1.0,-0.002068310510367155,0.004206126090139151,-0.0007436594460159546,1.2184696791468346e-07,0.0,0.0,0.0,1.2184696791468346e-07,0.0,0.0,0.0,1.2184696791468346e-07,-0.1176798,1.2033701897924109e-15,9.8262633,8.999999999999999e-08,0.0,0.0,0.0,8.999999999999999e-08,0.0,0.0,0.0,8.999999999999999e-08
1758482389193600100,4833,1758482389194254464,base_link,-0.0009680365211103369,0.01683545486278291,0.00017240992833944638,-0.9998577902080242,1.0,0.0,0.0,0.0,1.0,0.0,0.0,0.0,1.0,-0.0012954280246049166,0.01737479493021965,-0.0008251587860286257,1.2184696791468346e-07,0.0,0.0,0.0,1.2184696791468346e-07,0.0,0.0,0.0,1.2184696791468346e-07,-0.0784532,1.202169221539125e-15,9.81645665,8.999999999999999e-08,0.0,0.0,0.0,8.999999999999999e-08,0.0,0.0,0.0,8.999999999999999e-08
1758482389443549600,4834,1758482389444378624,base_link,-0.0008375758279817314,0.013988339122121761,0.00018130724643622507,-0.9999017911590213,1.0,0.0,0.0,0.0,1.0,0.0,0.0,0.0,1.0,-0.0027669183909893036,0.0244167298078537,-0.0007344821933656961,1.2184696791468346e-07,0.0,0.0,0.0,1.2184696791468346e-07,0.0,0.0,0.0,1.2184696791468346e-07,-0.0588399,1.202169221539125e-15,9.81645665,8.999999999999999e-08,0.0,0.0,0.0,8.999999999999999e-08,0.0,0.0,0.0,8.999999999999999e-08
1758482389694805100,4835,1758482389694548096,base_link,-0.0006609729208893357,0.010762330684440817,0.0001957072364813801,-0.9999418468349618,1.0,0.0,0.0,0.0,1.0,0.0,0.0,0.0,1.0,-0.004009057767689228,0.02864924445748329,-0.0008725647348910605,1.2184696791468346e-07,0.0,0.0,0.0,1.2184696791468346e-07,0.0,0.0,0.0,1.2184696791468346e-07,-0.02941995,1.2033701897924109e-15,9.8262633,8.999999999999999e-08,0.0,0.0,0.0,8.999999999999999e-08,0.0,0.0,0.0,8.999999999999999e-08
1758482389945048600,4836,1758482389944667392,base_link,-0.0005514969091354398,0.007749695493714124,0.00020267650506794514,-0.9999697980404949,1.0,0.0,0.0,0.0,1.0,0.0,0.0,0.0,1.0,-0.0013936285395175219,0.02070332132279873,-0.0006419629789888884,1.2184696791468346e-07,0.0,0.0,0.0,1.2184696791468346e-07,0.0,0.0,0.0,1.2184696791468346e-07,-0.0196133,1.202169221539125e-15,9.81645665,8.999999999999999e-08,0.0,0.0,0.0,8.999999999999999e-08,0.0,0.0,0.0,8.999999999999999e-08
1758482390196575500,4837,1758482390195847104,base_link,-0.00044354341874434103,-0.015777871261358895,0.00018618513937412775,-0.9998754059295536,1.0,0.0,0.0,0.0,1.0,0.0,0.0,0.0,1.0,-0.0008695097640156746,0.4494088292121887,-0.0006237449124456003,1.2184696791468346e-07,0.0,0.0,0.0,1.2184696791468346e-07,0.0,0.0,0.0,1.2184696791468346e-07,-0.00980665,1.202169221539125e-15,9.81645665,8.999999999999999e-08,0.0,0.0,0.0,8.999999999999999e-08,0.0,0.0,0.0,8.999999999999999e-08
1758482390446950100,4838,1758482390445961792,base_link,-0.00029544756207084685,-0.07264629672342637,0.00017398339620777303,-0.9973577081533423,1.0,0.0,0.0,0.0,1.0,0.0,0.0,0.0,1.0,-0.001522319158539176,0.1374400109052658,-0.0005537718534469773,1.2184696791468346e-07,0.0,0.0,0.0,1.2184696791468346e-07,0.0,0.0,0.0,1.2184696791468346e-07,0.0,1.202169221539125e-15,9.81645665,8.999999999999999e-08,0.0,0.0,0.0,8.999999999999999e-08,0.0,0.0,0.0,8.999999999999999e-08
1758482390697700200,4839,1758482390696141760,base_link,-0.0003139847905878567,-0.04673584867793891,0.00019406850560099433,-0.9989072150101426,1.0,0.0,0.0,0.0,1.0,0.0,0.0,0.0,1.0,-0.00022104382514953613,-0.31226205825805664,-0.0005460802931338166,1.2184696791468346e-07,0.0,0.0,0.0,1.2184696791468346e-07,0.0,0.0,0.0,1.2184696791468346e-07,-0.0588399,1.2129779358186976e-15,9.9047165,8.999999999999999e-08,0.0,0.0,0.0,8.999999999999999e-08,0.0,0.0,0.0,8.999999999999999e-08
1758482390943083300,4840,1758482390945262592,base_link,-0.00045843742661629206,-0.014760640421899082,0.00015086635578265194,-0.9998909393372879,1.0,0.0,0.0,0.0,1.0,0.0,0.0,0.0,1.0,0.0034935467410832644,-0.1990402191877365,-0.0006674868054687733,1.2184696791468346e-07,0.0,0.0,0.0,1.2184696791468346e-07,0.0,0.0,0.0,1.2184696791468346e-07,-0.1372931,1.2069730945522684e-15,9.85568325,8.999999999999999e-08,0.0,0.0,0.0,8.999999999999999e-08,0.0,0.0,0.0,8.999999999999999e-08
1758482391195112100,4841,1758482391195434368,base_link,-0.0007012504162359697,0.0037076640015672553,0.00011424455915570753,-0.9999928741864542,1.0,0.0,0.0,0.0,1.0,0.0,0.0,0.0,1.0,0.0027004298754036427,-0.11311837285757065,-0.0008386925328522782,1.2184696791468346e-07,0.0,0.0,0.0,1.2184696791468346e-07,0.0,0.0,0.0,1.2184696791468346e-07,-0.16671305,1.2009682532858392e-15,9.80665,8.999999999999999e-08,0.0,0.0,0.0,8.999999999999999e-08,0.0,0.0,0.0,8.999999999999999e-08
1758482391445252500,4842,1758482391445555200,base_link,-0.0008921623696456765,0.013768767243064162,9.856985867745611e-05,-0.9999048031582285,1.0,0.0,0.0,0.0,1.0,0.0,0.0,0.0,1.0,0.00043405545875430107,-0.05509781092405319,-0.0009455392137169771,1.2184696791468346e-07,0.0,0.0,0.0,1.2184696791468346e-07,0.0,0.0,0.0,1.2184696791468346e-07,-0.16671305,1.2009682532858392e-15,9.80665,8.999999999999999e-08,0.0,0.0,0.0,8.999999999999999e-08,0.0,0.0,0.0,8.999999999999999e-08
